subject,trial,null,pic_id,act_x,act_y,est_x,est_y,correct,distance,rt,day,condition,act_quad,est_quad,quad_diff
VRTag_004,1,1,33,1027.73,950.4854,1325,538,0,508.4425,2.316534,1,video,4,1,3
VRTag_004,2,1,17,846.7058,246.6719,729,527,0,304.037,8.633186,1,video,1,1,0
VRTag_004,3,1,1,1207.872,618.6556,598,743,0,622.419,2.366637,1,video,1,1,0
VRTag_004,4,1,18,608.5297,560.0752,527,874,0,324.3391,2.03319,1,video,3,2,1
VRTag_004,5,1,21,879.3494,424.7477,1135,178,0,355.305,2.199969,1,video,1,1,0
VRTag_004,6,1,46,715.8719,664.4652,968,96,0,621.8692,2.966576,1,video,3,3,0
VRTag_004,7,1,14,1256.356,722.3654,576,283,0,809.8931,2.866636,1,video,1,1,0
VRTag_004,8,1,13,654.2967,757.4363,1272,754,0,617.7128,2.166582,1,video,2,2,0
VRTag_004,9,1,32,587.7682,219.4759,1423,784,0,1008.117,6.833262,1,video,3,2,1
VRTag_004,10,1,45,1046.932,223.1053,1023,987,0,764.2695,4.71658,1,video,1,4,-3
VRTag_004,11,1,11,1023.647,363.4176,1318,270,0,308.821,5.383311,1,video,1,1,0
VRTag_004,12,1,48,529.2393,578.7317,1341,944,0,890.1552,1.983266,1,video,3,2,1
VRTag_004,13,1,16,687.3292,249.5658,517,228,1,171.689,2.449941,1,video,3,3,0
VRTag_004,14,1,6,584.9852,377.5215,769,234,0,233.3664,2.399944,1,video,3,3,0
VRTag_004,15,1,26,1470.354,424.3326,533,526,0,942.8513,4.683222,1,video,1,1,0
VRTag_004,16,1,15,1176.674,515.2168,1028,265,0,291.054,2.866563,1,video,1,1,0
VRTag_004,17,1,40,597.0003,910.5029,502,262,0,655.4244,1.866632,1,video,2,3,-1
VRTag_004,18,1,34,730.3889,513.8439,1219,770,0,551.6854,6.533193,1,video,3,2,1
VRTag_004,19,1,12,534.4372,161.2045,1320,260,0,791.7509,2.06658,1,video,3,3,0
VRTag_004,20,1,22,1463.272,468.8969,1309,58,0,438.9032,1.949951,1,video,1,1,0
VRTag_004,21,1,47,472.0379,488.485,516,367,1,129.1947,1.933127,1,video,3,3,0
VRTag_004,22,1,41,450.0326,607.0246,1371,557,0,922.325,1.866575,1,video,3,3,0
VRTag_004,23,1,31,1238.672,883.8056,519,877,0,719.7046,3.133227,1,video,4,4,0
VRTag_004,24,1,20,1244.092,384.1682,805,514,0,457.8845,1.983215,1,video,1,1,0
VRTag_007,1,1,6,1250.838,241.2645,651,574,0,685.9436,2.333242,1,video,1,1,0
VRTag_007,2,1,47,897.8621,412.8931,954,398,1,58.07981,1.549922,1,video,1,1,0
VRTag_007,3,1,45,1211.89,895.7911,1153,683,0,220.7897,1.683231,1,video,4,1,3
VRTag_007,4,1,31,563.7664,664.8497,762,793,0,236.0489,1.583259,1,video,3,2,1
VRTag_007,5,1,22,1405.007,162.0825,1104,390,0,377.5598,1.533305,1,video,1,1,0
VRTag_007,6,1,13,1099.609,264.637,1316,234,0,218.5489,2.133266,1,video,1,1,0
VRTag_007,7,1,48,1350.686,321.1371,860,297,0,491.2792,1.549891,1,video,1,1,0
VRTag_007,8,1,20,836.7077,467.3857,956,812,0,364.6775,1.899945,1,video,1,4,-3
VRTag_007,9,1,21,1311.67,586.0976,720,295,0,659.4026,3.449956,1,video,1,1,0
VRTag_007,10,1,17,1111.608,624.4696,1119,673,1,49.09013,2.450002,1,video,1,1,0
VRTag_007,11,1,18,923.9624,888.1325,1184,243,0,695.5685,1.983282,1,video,4,1,3
VRTag_007,12,1,11,814.3153,840.789,1170,967,0,377.4133,2.333306,1,video,4,4,0
VRTag_007,13,1,41,1167.543,319.6742,1079,435,1,145.3957,3.949913,1,video,1,1,0
VRTag_007,14,1,12,726.2688,571.4897,772,722,1,157.3045,2.649995,1,video,3,3,0
VRTag_007,15,1,26,1096.72,894.6056,988,667,0,252.2388,1.833294,1,video,4,1,3
VRTag_007,16,1,1,1471.495,941.8993,837,856,0,640.2829,1.799856,1,video,4,4,0
VRTag_007,17,1,33,1257.369,714.5516,691,295,0,704.8385,2.466587,1,video,1,1,0
VRTag_007,18,1,32,1135.65,179.8199,953,222,1,187.4575,3.666642,1,video,1,1,0
VRTag_007,19,1,15,1421.462,559.0708,1140,899,0,441.3305,2.799984,1,video,1,4,-3
VRTag_007,20,1,14,1130.096,297.3461,655,677,0,608.1555,3.216606,1,video,1,1,0
VRTag_007,21,1,46,760.1485,751.9358,848,565,0,206.5499,2.099955,1,video,4,1,3
VRTag_007,22,1,16,807.1291,760.5935,1010,894,0,242.8043,2.633272,1,video,4,4,0
VRTag_007,23,1,40,632.4665,743.8294,704,894,1,166.3378,2.416636,1,video,3,2,1
VRTag_007,24,1,34,810.7628,681.7539,807,678,1,5.315115,3.149941,1,video,1,1,0
VRTag_008,1,1,4,633.3642,379.083,1229,532,0,614.9517,2.649855,1,video,3,3,0
VRTag_008,2,1,42,778.3409,737.3964,766,705,1,34.66732,6.316573,1,video,1,1,0
VRTag_008,3,1,18,727.0957,636.9258,1299,796,0,593.6153,2.74995,1,video,3,2,1
VRTag_008,4,1,3,738.7866,162.6488,1292,174,0,553.3298,3.266604,1,video,3,3,0
VRTag_008,5,1,28,1198.783,895.0673,567,229,0,918.0391,3.633243,1,video,4,1,3
VRTag_008,6,1,39,518.2624,747.531,818,402,0,457.4213,3.066606,1,video,3,3,0
VRTag_008,7,1,25,886.8767,939.5459,1147,257,0,730.4335,1.899969,1,video,4,1,3
VRTag_008,8,1,2,1421.865,459.4069,847,704,0,624.7364,2.216622,1,video,1,1,0
VRTag_008,9,1,35,1126.423,163.6415,958,675,0,538.3809,2.333259,1,video,1,1,0
VRTag_008,10,1,38,918.41,477.2865,1191,280,0,336.4926,3.066544,1,video,1,1,0
VRTag_008,11,1,9,1165,498.1905,1095,709,0,222.1277,3.083256,1,video,1,1,0
VRTag_008,12,1,8,1159.416,940.4337,640,372,0,770.0062,2.433249,1,video,4,1,3
VRTag_008,13,1,30,1133.573,322.6012,448,706,0,785.497,4.766571,1,video,1,1,0
VRTag_008,14,1,10,1063.977,649.8731,1137,338,0,320.3079,3.499897,1,video,1,1,0
VRTag_008,15,1,27,1292.815,536.9986,573,233,0,781.3758,3.366625,1,video,1,1,0
VRTag_008,16,1,5,1101.34,132.1156,1092,156,1,25.64555,4.266559,1,video,1,1,0
VRTag_008,17,1,7,904.0121,676.053,1343,538,0,460.1837,3.04996,1,video,1,1,0
VRTag_008,18,1,36,1247.47,707.8422,868,537,0,416.1548,4.549958,1,video,1,1,0
VRTag_008,19,1,29,1335.442,154.9955,1345,777,0,622.0779,2.749974,1,video,1,4,-3
VRTag_008,20,1,37,768.893,311.8297,1360,873,0,815.058,2.416611,1,video,1,4,-3
VRTag_008,21,1,44,1050.814,167.9891,806,410,0,344.2426,2.166617,1,video,1,1,0
VRTag_008,22,1,24,947.8728,799.7992,1277,813,0,329.3918,2.566539,1,video,4,4,0
VRTag_008,23,1,43,1281.87,882.432,1149,260,0,636.4558,2.399902,1,video,4,1,3
VRTag_008,24,1,23,675.9123,298.6475,1352,121,0,699.0373,2.09995,1,video,3,3,0
VRTag_009,1,1,24,731.1223,259.4339,1090,219,0,361.1484,7.349874,1,video,3,3,0
VRTag_009,2,1,3,1259.43,563.9661,724,680,0,547.8588,6.849911,1,video,1,1,0
VRTag_009,3,1,39,639.7861,514.2467,1237,682,0,620.327,3.399929,1,video,3,3,0
VRTag_009,4,1,43,1104.347,127.3436,581,465,0,622.8192,2.69992,1,video,1,1,0
VRTag_009,5,1,38,1371.217,328.4903,686,304,0,685.6542,4.549904,1,video,1,1,0
VRTag_009,6,1,9,1132.97,483.9225,1210,329,1,173.0162,3.533291,1,video,1,1,0
VRTag_009,7,1,28,727.7277,731.2601,1236,772,0,509.9024,2.833288,1,video,3,2,1
VRTag_009,8,1,18,561.7796,157.306,1191,199,0,630.6003,4.133303,1,video,3,3,0
VRTag_009,9,1,23,790.1259,807.3013,1093,242,0,641.3254,2.99988,1,video,4,1,3
VRTag_009,10,1,29,1248.002,347.4494,1083,435,1,186.7908,2.249919,1,video,1,1,0
VRTag_009,11,1,30,1458.257,167.076,858,663,0,778.6203,4.099926,1,video,1,1,0
VRTag_009,12,1,42,896.8325,807.417,1174,424,0,473.1072,8.116561,1,video,4,1,3
VRTag_009,13,1,44,1374.724,648.6784,800,566,0,580.6404,5.199912,1,video,1,1,0
VRTag_009,14,1,7,1255.616,717.6139,1208,208,0,511.8335,2.366564,1,video,1,1,0
VRTag_009,15,1,10,627.6132,331.733,602,838,0,506.9145,3.949857,1,video,3,2,1
VRTag_009,16,1,27,1281.307,169.6921,1186,418,0,265.9706,4.233185,1,video,1,1,0
VRTag_009,17,1,2,1229.408,327.6952,1214,647,0,319.6763,3.46657,1,video,1,1,0
VRTag_009,18,1,35,481.7891,822.5664,949,656,0,496.0145,2.199896,1,video,2,3,-1
VRTag_009,19,1,8,667.9943,874.3482,589,632,0,254.8975,2.849956,1,video,2,3,-1
VRTag_009,20,1,4,728.3154,713.6603,620,213,0,512.2431,7.233224,1,video,3,3,0
VRTag_009,21,1,5,1188.784,116.1408,739,675,0,717.3763,2.083275,1,video,1,1,0
VRTag_009,22,1,25,712.867,620.3439,448,140,0,548.5297,2.099946,1,video,3,3,0
VRTag_009,23,1,37,1339.972,875.2115,917,626,0,490.9298,6.866594,1,video,4,1,3
VRTag_009,24,1,36,480.4714,126.4626,922,633,0,671.958,2.199888,1,video,3,3,0
VRTag_014,1,1,30,994.1273,356.8898,603,457,0,403.7358,2.692557,1,video,1,1,0
VRTag_014,2,1,4,1200.574,755.5924,1304,340,0,428.2686,3.716599,1,video,4,1,3
VRTag_014,3,1,27,1034.346,612.0095,838,388,0,297.8792,5.083071,1,video,1,1,0
VRTag_014,4,1,42,670.2504,858.0984,1299,873,0,628.9262,2.033246,1,video,2,2,0
VRTag_014,5,1,23,1167.485,178.8664,562,516,0,693.0162,2.783224,1,video,1,1,0
VRTag_014,6,1,35,1264.883,473.7692,1264,633,1,159.2333,1.98322,1,video,1,1,0
VRTag_014,7,1,38,925.8889,349.5766,866,371,1,63.60533,2.049927,1,video,1,1,0
VRTag_014,8,1,2,755.4427,358.0251,1347,314,0,593.1933,3.69996,1,video,1,1,0
VRTag_014,9,1,10,1111.088,429.4949,1049,202,0,235.8153,1.783227,1,video,1,1,0
VRTag_014,10,1,24,994.7312,906.9215,961,538,0,370.4603,2.74991,1,video,4,1,3
VRTag_014,11,1,37,1291.859,798.045,1324,457,0,342.5562,3.683258,1,video,4,1,3
VRTag_014,12,1,18,985.7252,483.8568,973,522,1,40.20988,2.633226,1,video,1,1,0
VRTag_014,13,1,3,1329.478,490.7432,1152,773,0,333.4175,3.683332,1,video,1,4,-3
VRTag_014,14,1,9,1044.748,285.5551,997,758,0,474.8517,2.299935,1,video,1,4,-3
VRTag_014,15,1,8,758.8978,152.6964,1226,380,0,519.4722,2.749922,1,video,1,1,0
VRTag_014,16,1,7,1394.985,383.0158,1345,174,0,214.9095,2.43323,1,video,1,1,0
VRTag_014,17,1,43,795.3649,522.5712,803,332,1,190.724,9.283156,1,video,1,1,0
VRTag_014,18,1,5,1337.954,778.7805,1037,616,0,342.156,2.899936,1,video,4,1,3
VRTag_014,19,1,28,1368.176,179.4219,1347,453,0,274.3965,8.133184,1,video,1,1,0
VRTag_014,20,1,29,1314.381,268.2895,1291,786,0,518.2382,1.933288,1,video,1,4,-3
VRTag_014,21,1,36,553.8179,504.9114,618,270,0,243.5215,3.59993,1,video,3,3,0
VRTag_014,22,1,44,1102.191,372.9619,871,411,0,234.2991,6.899877,1,video,1,1,0
VRTag_014,23,1,25,1259.27,659.6687,956,519,0,334.3057,1.899916,1,video,1,1,0
VRTag_014,24,1,39,849.4844,605.4849,479,506,0,383.6091,5.183202,1,video,1,1,0
VRTag_015,1,1,15,925.5564,162.3567,1403,246,0,484.715,3.725473,1,video,1,1,0
VRTag_015,2,1,34,1215.115,409.2355,1435,931,0,566.2047,3.016567,1,video,1,4,-3
VRTag_015,3,1,13,1339.824,953.6029,1264,652,0,310.988,6.399761,1,video,4,1,3
VRTag_015,4,1,40,1044.123,159.0218,739,569,0,511.0599,2.233259,1,video,1,1,0
VRTag_015,5,1,31,1471.695,270.0328,1134,821,0,646.2219,2.54987,1,video,1,4,-3
VRTag_015,6,1,45,1465.103,132.6368,868,747,0,856.7227,4.966507,1,video,1,1,0
VRTag_015,7,1,18,1268.563,660.4636,1388,157,0,517.4369,2.883283,1,video,1,1,0
VRTag_015,8,1,48,827.4054,722.9087,605,881,0,272.8681,2.699901,1,video,1,4,-3
VRTag_015,9,1,6,1319.856,549.9797,1399,300,0,262.209,2.633247,1,video,1,1,0
VRTag_015,10,1,46,1090.503,712.572,719,640,0,378.5254,5.116556,1,video,1,1,0
VRTag_015,11,1,20,546.0842,429.8611,1144,176,0,649.5759,2.483256,1,video,3,3,0
VRTag_015,12,1,32,1398.952,254.9399,1144,912,0,704.7895,2.799871,1,video,1,4,-3
VRTag_015,13,1,17,1400.305,737.6677,1177,365,0,434.4494,4.016598,1,video,1,1,0
VRTag_015,14,1,22,957.5281,169.9484,848,574,0,418.6336,1.999854,1,video,1,1,0
VRTag_015,15,1,47,685.6033,327.9043,632,709,0,384.8471,3.399896,1,video,3,3,0
VRTag_015,16,1,26,1299.872,602.6307,706,365,0,639.6501,4.433212,1,video,1,1,0
VRTag_015,17,1,41,980.1499,925.9067,1303,717,0,384.5442,4.233176,1,video,4,1,3
VRTag_015,18,1,33,1175.006,773.1599,498,855,0,681.935,3.033255,1,video,4,4,0
VRTag_015,19,1,1,619.405,743.7897,1352,914,0,752.1083,2.583188,1,video,3,2,1
VRTag_015,20,1,16,1108.547,776.7239,968,162,0,630.5862,2.599896,1,video,4,1,3
VRTag_015,21,1,14,1344.527,350.0295,1348,277,1,73.11208,5.199936,1,video,1,1,0
VRTag_015,22,1,21,742.0589,379.9562,507,177,0,310.5542,2.366589,1,video,3,3,0
VRTag_015,23,1,11,1320.223,645.7347,1254,700,1,85.61629,2.449883,1,video,1,1,0
VRTag_015,24,1,12,1313.786,709.4543,1413,375,0,348.8597,2.399916,1,video,1,1,0
VRTag_016,1,1,9,1057.188,366.9492,554,219,0,524.4875,5.341396,1,video,1,1,0
VRTag_016,2,1,7,697.6869,368.9399,434,411,0,267.0203,3.249906,1,video,3,3,0
VRTag_016,3,1,28,1336.19,961.8056,1472,861,1,169.1331,2.216506,1,video,4,4,0
VRTag_016,4,1,10,688.023,279.5538,1500,442,0,828.0673,2.099886,1,video,3,3,0
VRTag_016,5,1,18,1067.055,922.0802,1071,851,1,71.18955,2.299944,1,video,4,4,0
VRTag_016,6,1,24,488.9012,461.9697,691,420,0,206.4107,1.583215,1,video,3,3,0
VRTag_016,7,1,27,799.5141,730.2305,952,414,0,351.0751,2.183236,1,video,1,1,0
VRTag_016,8,1,35,1219.205,579.1269,1387,323,0,306.1962,2.283268,1,video,1,1,0
VRTag_016,9,1,4,860.8742,172.6422,847,845,0,672.5009,1.849914,1,video,1,4,-3
VRTag_016,10,1,38,662.1334,838.4475,594,743,1,117.2705,2.399925,1,video,2,3,-1
VRTag_016,11,1,36,1273.672,870.998,1209,659,0,221.6429,1.649952,1,video,4,1,3
VRTag_016,12,1,29,1426.182,147.8715,1353,876,0,731.7968,1.616468,1,video,1,4,-3
VRTag_016,13,1,23,607.9936,665.6338,1083,867,0,515.9258,1.999972,1,video,3,2,1
VRTag_016,14,1,2,535.8049,861.5938,592,660,0,209.2796,2.433304,1,video,2,3,-1
VRTag_016,15,1,30,644.8723,850.0821,1093,299,0,710.2886,2.183246,1,video,2,3,-1
VRTag_016,16,1,39,448.9631,936.2643,1208,460,0,896.083,1.849918,1,video,2,3,-1
VRTag_016,17,1,3,1325.305,967.1528,601,840,0,735.3812,1.766672,1,video,4,4,0
VRTag_016,18,1,42,1459.401,783.568,792,650,0,680.6355,1.366631,1,video,4,1,3
VRTag_016,19,1,8,602.9219,705.3162,580,912,0,207.9509,2.283251,1,video,3,2,1
VRTag_016,20,1,43,1426.723,211.4206,1102,648,0,544.1018,3.633178,1,video,1,1,0
VRTag_016,21,1,5,1462.045,442.7524,599,690,0,897.7631,2.449939,1,video,1,1,0
VRTag_016,22,1,44,458.1551,802.1469,1200,456,0,818.6278,1.533238,1,video,2,3,-1
VRTag_016,23,1,25,531.4091,372.4311,1045,401,0,514.3849,1.499944,1,video,3,3,0
VRTag_016,24,1,37,906.3788,318.1512,1234,315,0,327.6363,1.39991,1,video,1,1,0
VRTag_018,1,1,14,842.1597,602.894,957,387,0,244.5373,13.47447,1,video,1,1,0
VRTag_018,2,1,40,700.0739,933.4925,1128,814,0,444.2963,3.483193,1,video,2,2,0
VRTag_018,3,1,21,1469.777,661.4012,1084,420,0,455.0805,1.866471,1,video,1,1,0
VRTag_018,4,1,18,763.4604,282.3163,1081,841,0,642.6188,3.899896,1,video,1,4,-3
VRTag_018,5,1,13,1020.47,685.8893,651,678,0,369.5542,3.533221,1,video,1,1,0
VRTag_018,6,1,22,926.1016,274.6861,615,331,0,316.1573,3.183223,1,video,1,1,0
VRTag_018,7,1,31,1404.661,699.756,582,822,0,831.6938,3.716577,1,video,1,4,-3
VRTag_018,8,1,1,1063.177,626.9563,1120,415,0,219.4409,14.51649,1,video,1,1,0
VRTag_018,9,1,16,733.9528,478.5677,635,345,1,166.2287,5.633205,1,video,3,3,0
VRTag_018,10,1,17,449.3457,284.5234,470,638,0,354.0795,3.199895,1,video,3,3,0
VRTag_018,11,1,12,907.0206,158.0326,706,549,0,439.6189,1.883269,1,video,1,1,0
VRTag_018,12,1,34,657.0605,569.0422,983,621,0,330.0548,3.333195,1,video,3,3,0
VRTag_018,13,1,20,544.9826,831.3631,1097,424,0,686.0524,2.816583,1,video,2,3,-1
VRTag_018,14,1,15,516.6164,148.3115,1204,566,0,804.3381,6.266506,1,video,3,3,0
VRTag_018,15,1,48,953.0407,853.4175,1257,361,0,578.6763,2.216488,1,video,4,1,3
VRTag_018,16,1,6,1041.861,408.1828,857,696,0,342.0704,2.449949,1,video,1,1,0
VRTag_018,17,1,33,738.6808,942.2177,1192,265,0,814.9369,2.316611,1,video,2,3,-1
VRTag_018,18,1,45,527.3278,806.0604,1240,354,0,843.9551,6.083245,1,video,2,3,-1
VRTag_018,19,1,26,622.3143,395.0108,673,858,0,465.7554,3.13325,1,video,3,2,1
VRTag_018,20,1,41,1261.653,464.8997,972,251,0,360.0721,1.7499,1,video,1,1,0
VRTag_018,21,1,32,558.7779,286.2114,932,845,0,671.9668,1.816519,1,video,3,2,1
VRTag_018,22,1,47,554.8882,412.5986,1243,865,0,823.5076,2.716578,1,video,3,2,1
VRTag_018,23,1,46,1325.512,696.5414,590,657,0,736.5742,1.649928,1,video,1,1,0
VRTag_018,24,1,11,741.5377,631.0982,423,235,0,508.2913,1.749947,1,video,3,3,0
VRTag_019,1,1,33,665.5307,698.3964,1205,738,0,540.921,4.299832,1,video,3,3,0
VRTag_019,2,1,1,675.1086,530.3141,1048,811,0,466.7254,3.799933,1,video,3,2,1
VRTag_019,3,1,6,867.008,930.63,1402,644,0,606.9376,4.033192,1,video,4,1,3
VRTag_019,4,1,47,1163.535,421.9078,1044,949,0,540.4764,5.783229,1,video,1,4,-3
VRTag_019,5,1,17,1295.827,531.6298,1153,311,0,262.8253,5.31655,1,video,1,1,0
VRTag_019,6,1,14,625.9925,559.0066,631,359,0,200.0693,2.533261,1,video,3,3,0
VRTag_019,7,1,11,1398.185,647.4362,1121,551,0,293.4815,2.016605,1,video,1,1,0
VRTag_019,8,1,26,1228.152,833.3729,1086,420,0,437.1319,4.099927,1,video,4,1,3
VRTag_019,9,1,15,1441.534,255.0198,898,359,0,553.3903,4.566601,1,video,1,1,0
VRTag_019,10,1,16,711.0988,505.8218,613,532,1,101.5317,4.349894,1,video,3,3,0
VRTag_019,11,1,20,1068.841,820.5609,767,448,0,479.4891,2.266612,1,video,4,1,3
VRTag_019,12,1,34,1133.491,448.5765,1267,818,0,392.8084,3.116592,1,video,1,4,-3
VRTag_019,13,1,13,1290.999,548.9962,482,353,0,832.4029,2.416657,1,video,1,1,0
VRTag_019,14,1,18,1187.89,385.2145,1346,756,0,403.0891,4.666497,1,video,1,4,-3
VRTag_019,15,1,12,735.3214,368.4371,1410,658,0,734.192,4.53326,1,video,3,3,0
VRTag_019,16,1,45,786.0884,569.4947,1239,87,0,661.7628,3.616549,1,video,1,1,0
VRTag_019,17,1,41,1179.964,843.8925,1104,300,0,549.1717,5.516565,1,video,4,1,3
VRTag_019,18,1,48,1215.759,305.1317,673,615,0,624.9849,4.899852,1,video,1,1,0
VRTag_019,19,1,22,890.4405,367.5091,1264,783,0,558.7302,3.399827,1,video,1,4,-3
VRTag_019,20,1,46,1278.781,282.5927,1330,671,0,391.7699,2.883239,1,video,1,1,0
VRTag_019,21,1,40,968.6682,205.9091,1258,151,0,294.496,4.549899,1,video,1,1,0
VRTag_019,22,1,21,468.0503,413.9195,1164,424,0,696.0227,6.833213,1,video,3,3,0
VRTag_019,23,1,32,790.5078,333.3576,961,926,0,616.6787,3.199915,1,video,1,4,-3
VRTag_019,24,1,31,1449.956,653.9203,982,141,0,694.3129,9.949854,1,video,1,1,0
VRTag_021,1,1,18,798.0119,271.3953,714,243,1,88.6809,8.566576,1,video,1,1,0
VRTag_021,2,1,31,820.0739,848.3623,695,562,0,312.485,3.033199,1,video,4,1,3
VRTag_021,3,1,40,894.8989,467.6065,956,358,1,125.4867,2.733273,1,video,1,1,0
VRTag_021,4,1,22,739.7288,286.6134,703,667,0,382.1557,6.599918,1,video,3,3,0
VRTag_021,5,1,45,672.4701,147.3972,916,546,0,467.1092,7.649884,1,video,3,3,0
VRTag_021,6,1,16,673.5605,132.0872,737,335,0,212.5986,5.016593,1,video,3,3,0
VRTag_021,7,1,48,843.9654,645.4588,1231,680,0,388.5729,5.0499,1,video,1,1,0
VRTag_021,8,1,13,506.4242,647.3599,482,636,1,26.93679,3.083201,1,video,3,3,0
VRTag_021,9,1,17,487.2558,307.6998,1220,345,0,733.6929,4.883231,1,video,3,3,0
VRTag_021,10,1,21,618.4304,578.4926,836,567,0,217.8729,2.866598,1,video,3,3,0
VRTag_021,11,1,47,1425.825,858.4601,980,125,0,858.3258,3.299929,1,video,4,1,3
VRTag_021,12,1,32,1362.508,127.5496,970,672,0,671.1845,4.083186,1,video,1,1,0
VRTag_021,13,1,20,846.6242,769.4664,1332,233,0,723.4541,2.483286,1,video,4,1,3
VRTag_021,14,1,15,857.477,576.0529,824,889,0,314.7325,2.583243,1,video,1,4,-3
VRTag_021,15,1,12,779.2618,172.4695,823,668,0,497.457,3.633251,1,video,1,1,0
VRTag_021,16,1,26,1022.038,768.9908,956,355,0,419.2248,1.766525,1,video,4,1,3
VRTag_021,17,1,33,1202.472,229.6922,1075,643,0,432.5187,3.149912,1,video,1,1,0
VRTag_021,18,1,1,1094.063,743.4594,719,334,0,555.2742,2.216612,1,video,1,1,0
VRTag_021,19,1,14,473.7271,847.0061,1358,772,0,887.4483,3.833305,1,video,2,2,0
VRTag_021,20,1,11,1372.925,970.4169,572,885,0,805.467,2.099956,1,video,4,4,0
VRTag_021,21,1,41,1221,138.1242,1376,922,0,799.0533,5.216593,1,video,1,4,-3
VRTag_021,22,1,46,693.0786,257.0525,1383,531,0,742.3199,2.266589,1,video,3,3,0
VRTag_021,23,1,34,1166.414,544.9712,1084,451,1,124.9905,2.433275,1,video,1,1,0
VRTag_021,24,1,6,1386.469,536.7868,1374,860,0,323.4537,2.183236,1,video,1,4,-3
VRTag_022,1,1,5,492.1364,362.5809,1125,646,0,693.4283,3.356844,1,video,3,3,0
VRTag_022,2,1,27,482.7627,392.6963,833,224,0,388.7475,2.916561,1,video,3,3,0
VRTag_022,3,1,35,1269.048,648.3356,1121,83,0,584.3994,1.766492,1,video,1,1,0
VRTag_022,4,1,43,517.8303,446.6641,588,548,1,123.2589,5.383268,1,video,3,3,0
VRTag_022,5,1,3,465.545,525.5587,1221,438,0,760.5122,4.733188,1,video,3,3,0
VRTag_022,6,1,8,469.5059,524.1019,841,550,0,372.3958,1.466609,1,video,3,3,0
VRTag_022,7,1,29,1078.158,246.4261,1106,797,0,551.2774,2.333253,1,video,1,4,-3
VRTag_022,8,1,28,579.7444,776.7424,815,881,0,257.3225,2.149914,1,video,2,2,0
VRTag_022,9,1,42,685.3369,805.9018,1364,438,0,771.9685,3.283235,1,video,2,3,-1
VRTag_022,10,1,24,951.1266,630.0339,1080,772,1,191.7361,2.583289,1,video,1,4,-3
VRTag_022,11,1,2,1356.721,571.367,1100,291,0,380.1464,2.116589,1,video,1,1,0
VRTag_022,12,1,9,757.7571,558.8535,724,503,1,65.26222,4.283267,1,video,1,1,0
VRTag_022,13,1,44,1229.107,750.2853,1213,661,1,90.72649,4.399907,1,video,4,1,3
VRTag_022,14,1,37,482.644,855.4572,1100,332,0,809.4046,1.633302,1,video,2,3,-1
VRTag_022,15,1,23,1125.774,418.4171,1480,737,0,476.4151,2.299942,1,video,1,1,0
VRTag_022,16,1,25,1376.093,522.5093,550,630,0,833.0574,4.866564,1,video,1,1,0
VRTag_022,17,1,4,891.7551,855.8983,1166,264,0,652.3449,2.066637,1,video,4,1,3
VRTag_022,18,1,10,1192.417,643.43,445,96,0,926.4515,3.299935,1,video,1,1,0
VRTag_022,19,1,39,775.6365,462.8696,1004,500,0,231.3624,4.499931,1,video,1,1,0
VRTag_022,20,1,7,480.9168,398.0941,1144,258,0,677.721,2.216604,1,video,3,3,0
VRTag_022,21,1,18,934.6347,564.4337,709,754,0,294.6971,1.799898,1,video,1,4,-3
VRTag_022,22,1,30,454.0936,119.2702,903,910,0,909.2692,2.916518,1,video,3,2,1
VRTag_022,23,1,38,1241.721,757.8504,1133,40,0,726.0367,1.866595,1,video,4,1,3
VRTag_022,24,1,36,924.9272,929.6449,1086,321,0,629.5975,1.466598,1,video,4,1,3
VRTag_024,1,1,2,1209.538,514.5188,543,375,0,680.9837,2.557032,1,video,1,1,0
VRTag_024,2,1,43,994.4905,474.1157,960,185,0,291.1658,2.216642,1,video,1,1,0
VRTag_024,3,1,25,685.9925,536.4507,1321,186,0,725.2932,7.849791,1,video,3,3,0
VRTag_024,4,1,9,1459.221,185.8176,1355,536,0,365.3625,2.033262,1,video,1,1,0
VRTag_024,5,1,10,506.1528,184.1148,1402,202,0,896.0257,1.983319,1,video,3,3,0
VRTag_024,6,1,38,474.1576,679.7735,1056,272,0,710.5067,2.733285,1,video,3,3,0
VRTag_024,7,1,30,706.905,467.7827,1395,704,0,727.5118,3.73325,1,video,3,3,0
VRTag_024,8,1,28,572.4021,384.9604,1504,285,0,936.9454,3.36658,1,video,3,3,0
VRTag_024,9,1,36,1427.843,601.3958,655,843,0,809.7277,7.216583,1,video,1,4,-3
VRTag_024,10,1,37,609.5662,334.1655,783,852,0,546.106,2.499884,1,video,3,2,1
VRTag_024,11,1,29,481.2692,287.6595,1527,528,0,1072.994,2.56657,1,video,3,3,0
VRTag_024,12,1,23,593.436,273.1767,537,883,0,612.4292,2.499904,1,video,3,2,1
VRTag_024,13,1,3,1283.902,496.4508,1120,171,0,364.3927,2.333256,1,video,1,1,0
VRTag_024,14,1,4,1371.15,743.4999,1427,809,1,86.07805,4.866574,1,video,1,4,-3
VRTag_024,15,1,44,1359.705,146.1718,761,715,0,825.8408,4.016543,1,video,1,1,0
VRTag_024,16,1,24,748.5668,205.304,1332,153,0,585.773,4.349937,1,video,3,3,0
VRTag_024,17,1,5,1183.963,234.1298,744,179,0,443.4037,6.583256,1,video,1,1,0
VRTag_024,18,1,7,473.2621,167.6816,1427,897,0,1200.634,2.549925,1,video,3,2,1
VRTag_024,19,1,8,1230.273,937.9553,358,183,0,1153.61,2.499871,1,video,4,1,3
VRTag_024,20,1,42,1390.517,894.8923,1023,892,0,367.5286,2.733201,1,video,4,4,0
VRTag_024,21,1,39,1022.998,355.1819,1042,800,0,445.2238,4.149889,1,video,1,4,-3
VRTag_024,22,1,18,819.1387,800.1002,1584,338,0,893.6159,5.566559,1,video,4,1,3
VRTag_024,23,1,35,546.8805,970.0972,1116,137,0,1008.934,7.666546,1,video,2,3,-1
VRTag_024,24,1,27,1467.797,838.2398,1013,475,0,582.0509,2.849889,1,video,4,1,3
VRTag_025,1,1,30,1320.575,860.2278,550,765,0,776.4368,4.583208,1,video,4,4,0
VRTag_025,2,1,5,1349.008,775.349,1129,915,0,260.5877,7.583165,1,video,4,4,0
VRTag_025,3,1,23,893.5749,403.3083,789,351,1,116.9276,5.099891,1,video,1,1,0
VRTag_025,4,1,10,1104.093,403.1851,624,803,0,624.7731,2.833254,1,video,1,4,-3
VRTag_025,5,1,37,720.859,530.4795,998,421,0,297.9814,4.916542,1,video,3,3,0
VRTag_025,6,1,24,560.5238,694.8696,1190,428,0,683.7102,3.499858,1,video,3,3,0
VRTag_025,7,1,44,666.9651,612.0652,536,766,0,202.1084,2.86658,1,video,3,2,1
VRTag_025,8,1,43,712.4117,770.2857,1240,184,0,788.7206,2.099879,1,video,2,3,-1
VRTag_025,9,1,4,647.7358,721.2881,546,726,1,101.8448,2.333251,1,video,3,3,0
VRTag_025,10,1,29,645.7086,200.4575,568,889,0,692.9137,2.733249,1,video,3,2,1
VRTag_025,11,1,28,476.684,278.2287,581,204,1,128.0302,2.599925,1,video,3,3,0
VRTag_025,12,1,8,606.1958,274.5446,1088,927,0,811.0693,4.583234,1,video,3,2,1
VRTag_025,13,1,25,1217.644,118.3186,580,545,0,767.2331,2.016634,1,video,1,1,0
VRTag_025,14,1,38,605.8189,693.341,1291,749,0,687.438,3.283245,1,video,3,3,0
VRTag_025,15,1,2,1092.11,829.0024,473,265,0,837.4935,4.18326,1,video,4,1,3
VRTag_025,16,1,7,1150.234,942.2764,1163,916,1,29.21352,2.483272,1,video,4,4,0
VRTag_025,17,1,35,541.6135,281.2951,1290,432,0,763.4097,4.483178,1,video,3,3,0
VRTag_025,18,1,39,554.9678,825.5876,1313,794,0,758.6901,6.966559,1,video,2,2,0
VRTag_025,19,1,3,1437.196,298.4877,1065,915,0,720.1507,6.899886,1,video,1,4,-3
VRTag_025,20,1,27,898.2775,894.0058,823,431,0,469.0854,5.399959,1,video,4,1,3
VRTag_025,21,1,18,1054.557,941.4251,1471,233,0,821.7606,2.149926,1,video,4,1,3
VRTag_025,22,1,36,1450.24,246.3118,839,855,0,862.6215,2.716585,1,video,1,4,-3
VRTag_025,23,1,9,528.7931,141.6536,1076,426,0,616.6752,3.149969,1,video,3,3,0
VRTag_025,24,1,42,1306.393,735.2462,1323,414,0,321.6752,7.149884,1,video,1,1,0
VRTag_026,1,1,35,625.0332,380.7941,401,290,0,241.7322,2.624271,1,video,3,3,0
VRTag_026,2,1,23,533.0495,689.5463,1492,962,0,996.9038,2.499987,1,video,3,2,1
VRTag_026,3,1,3,702.6161,630.6858,1213,188,0,675.6201,2.799766,1,video,3,3,0
VRTag_026,4,1,42,725.8301,867.581,379,530,0,483.9959,2.3832,1,video,2,3,-1
VRTag_026,5,1,38,1462.22,952.3015,1471,171,0,781.3508,1.949954,1,video,4,1,3
VRTag_026,6,1,28,973.4334,221.4743,610,193,0,364.5472,1.91663,1,video,1,1,0
VRTag_026,7,1,43,865.7265,422.179,559,268,0,343.2963,1.549964,1,video,1,1,0
VRTag_026,8,1,10,1058.883,757.157,692,893,0,391.2247,1.766514,1,video,4,4,0
VRTag_026,9,1,9,784.9069,276.5931,1225,973,0,823.811,2.233264,1,video,1,4,-3
VRTag_026,10,1,25,1271.836,132.7773,1351,776,0,648.0759,2.999904,1,video,1,4,-3
VRTag_026,11,1,2,704.9794,894.6492,637,678,0,227.0641,1.616591,1,video,2,3,-1
VRTag_026,12,1,27,1170.867,637.8306,1216,617,1,49.70778,4.483269,1,video,1,1,0
VRTag_026,13,1,30,1271.036,647.6189,886,512,0,408.2222,1.233178,1,video,1,1,0
VRTag_026,14,1,29,1161.68,288.3018,810,453,0,388.3356,2.216559,1,video,1,1,0
VRTag_026,15,1,8,1134.231,420.9049,959,230,0,259.1341,3.916618,1,video,1,1,0
VRTag_026,16,1,4,1218.588,924.3256,1320,395,0,538.9527,1.69995,1,video,4,1,3
VRTag_026,17,1,24,1242.384,701.6072,1432,945,0,308.5356,2.516609,1,video,1,4,-3
VRTag_026,18,1,37,1061.576,453.1953,1177,526,1,136.4665,1.249913,1,video,1,1,0
VRTag_026,19,1,44,1463.253,936.1632,1121,624,0,463.2311,3.566608,1,video,4,1,3
VRTag_026,20,1,7,1046.258,700.209,964,505,0,211.8323,1.083318,1,video,1,1,0
VRTag_026,21,1,18,968.5147,859.9296,960,540,0,320.0429,1.149942,1,video,4,1,3
VRTag_026,22,1,36,888.6727,458.4722,1149,165,0,392.2961,2.933246,1,video,1,1,0
VRTag_026,23,1,5,1352.773,597.4756,1116,927,0,405.7682,1.966581,1,video,1,4,-3
VRTag_026,24,1,39,1389.111,773.878,476,423,0,978.2058,1.499897,1,video,4,1,3
VRTag_027,1,1,24,588.4197,329.5741,1161,279,0,574.8094,2.425092,1,video,3,3,0
VRTag_027,2,1,18,698.6813,792.3432,763,910,1,134.0896,2.599948,1,video,2,2,0
VRTag_027,3,1,39,1238.391,388.4583,776,471,0,469.7007,1.98312,1,video,1,1,0
VRTag_027,4,1,2,1159.919,899.6454,661,708,0,534.4606,1.799964,1,video,4,1,3
VRTag_027,5,1,25,487.4168,287.7273,1009,278,0,521.6739,1.683326,1,video,3,3,0
VRTag_027,6,1,10,883.6678,139.1193,649,386,0,340.6157,2.166664,1,video,1,1,0
VRTag_027,7,1,38,830.402,390.1319,960,687,0,323.9233,1.649896,1,video,1,1,0
VRTag_027,8,1,23,953.8958,461.3417,1243,378,0,300.8771,2.533221,1,video,1,1,0
VRTag_027,9,1,35,1186.127,943.9596,778,714,0,468.4537,1.83335,1,video,4,1,3
VRTag_027,10,1,4,659.0057,425.319,1159,379,0,502.1352,6.433237,1,video,3,3,0
VRTag_027,11,1,43,1211.915,256.8804,1155,704,0,450.7274,1.733306,1,video,1,1,0
VRTag_027,12,1,28,512.0397,962.1646,1149,931,0,637.7222,2.383237,1,video,2,2,0
VRTag_027,13,1,29,915.3545,332.1082,972,152,1,188.8059,2.116572,1,video,1,1,0
VRTag_027,14,1,9,725.5674,182.9202,521,776,0,627.3687,2.483297,1,video,3,2,1
VRTag_027,15,1,44,959.5862,109.6888,695,565,0,526.6063,1.44998,1,video,1,1,0
VRTag_027,16,1,5,810.5431,833.6764,522,373,0,543.5806,3.066598,1,video,4,1,3
VRTag_027,17,1,37,1333.644,738.1654,1127,491,0,322.1684,1.86654,1,video,1,1,0
VRTag_027,18,1,42,453.7071,798.8343,1107,706,0,659.8559,2.749948,1,video,2,3,-1
VRTag_027,19,1,3,880.3635,490.6129,762,314,0,212.6077,2.583312,1,video,1,1,0
VRTag_027,20,1,36,850.81,119.6894,1154,710,0,663.6194,4.766527,1,video,1,1,0
VRTag_027,21,1,27,457.8512,379.0518,1159,264,0,710.5255,2.466582,1,video,3,3,0
VRTag_027,22,1,30,530.0806,767.7241,1270,708,0,742.3259,2.999882,1,video,2,3,-1
VRTag_027,23,1,8,1039.116,225.6979,638,693,0,615.8454,2.216514,1,video,1,1,0
VRTag_027,24,1,7,1265.11,366.5306,511,995,0,981.6594,2.716613,1,video,1,4,-3
VRTag_028,1,1,47,600.3634,538.8373,1457,804,0,896.7372,3.466502,1,video,3,2,1
VRTag_028,2,1,48,974.6799,493.5777,1444,942,0,649.1101,2.966611,1,video,1,4,-3
VRTag_028,3,1,41,588.2525,222.8022,1471,661,0,985.5255,2.73331,1,video,3,3,0
VRTag_028,4,1,46,471.5761,762.3989,566,563,0,220.6259,3.216569,1,video,2,3,-1
VRTag_028,5,1,31,606.2623,372.4787,618,862,0,489.662,3.033314,1,video,3,2,1
VRTag_028,6,1,13,557.3579,492.8291,1109,540,0,553.6552,1.949916,1,video,3,3,0
VRTag_028,7,1,34,653.8289,239.3065,950,225,0,296.5164,3.383242,1,video,3,3,0
VRTag_028,8,1,1,1436.109,358.9323,636,165,0,823.2763,2.183238,1,video,1,1,0
VRTag_028,9,1,14,944.604,141.2134,553,275,0,413.8267,3.533256,1,video,1,1,0
VRTag_028,10,1,12,668.87,114.2719,582,859,0,749.7775,3.149939,1,video,3,2,1
VRTag_028,11,1,32,505.6244,873.871,1271,284,0,966.3062,3.083278,1,video,2,3,-1
VRTag_028,12,1,21,728.6069,490.6685,565,701,0,266.4706,2.716596,1,video,3,3,0
VRTag_028,13,1,15,1159.857,870.3437,1387,532,0,407.5172,2.349918,1,video,4,1,3
VRTag_028,14,1,6,623.9002,736.4648,690,894,1,170.8406,3.966599,1,video,3,2,1
VRTag_028,15,1,33,952.2087,610.7706,825,186,0,443.4097,3.249917,1,video,1,1,0
VRTag_028,16,1,22,993.1218,229.3008,1090,875,0,652.9264,2.716502,1,video,1,4,-3
VRTag_028,17,1,40,642.3496,926.6401,777,667,0,292.4786,3.233276,1,video,2,3,-1
VRTag_028,18,1,26,1074.58,551.2344,571,257,0,583.2381,2.466591,1,video,1,1,0
VRTag_028,19,1,45,724.717,770.9,1333,667,0,617.0927,3.149911,1,video,2,3,-1
VRTag_028,20,1,17,1038.956,380.0066,576,190,0,500.4307,2.099868,1,video,1,1,0
VRTag_028,21,1,16,645.6458,246.1734,577,878,0,635.5447,2.533267,1,video,3,2,1
VRTag_028,22,1,18,1321.858,501.7124,578,874,0,831.8193,2.466591,1,video,1,4,-3
VRTag_028,23,1,20,516.2974,368.5679,961,614,0,507.9344,2.649872,1,video,3,3,0
VRTag_028,24,1,11,1454.027,339.2744,538,553,0,940.6296,2.216616,1,video,1,1,0
VRTag_029,1,1,33,594.1943,461.0338,742,908,0,470.771,5.099828,1,video,3,2,1
VRTag_029,2,1,45,1149.277,198.6657,1252,573,0,388.1728,4.399958,1,video,1,1,0
VRTag_029,3,1,26,1377.967,722.7537,1259,151,0,583.9995,2.016589,1,video,1,1,0
VRTag_029,4,1,20,1211.925,136.0315,1145,817,0,684.2492,2.116595,1,video,1,4,-3
VRTag_029,5,1,41,512.2625,326.1974,987,905,0,748.5908,2.383253,1,video,3,2,1
VRTag_029,6,1,48,590.9685,272.6432,1121,697,0,678.9787,2.049907,1,video,3,3,0
VRTag_029,7,1,34,606.7889,442.9604,515,866,0,432.883,3.199892,1,video,3,2,1
VRTag_029,8,1,46,1275.726,123.9231,514,511,0,854.4325,4.849903,1,video,1,1,0
VRTag_029,9,1,22,1294.342,461.9313,1105,135,0,377.8022,4.316569,1,video,1,1,0
VRTag_029,10,1,11,1405.609,191.3669,784,639,0,766.0111,4.366599,1,video,1,1,0
VRTag_029,11,1,18,939.3336,835.3659,577,139,0,784.9912,2.749876,1,video,4,1,3
VRTag_029,12,1,1,459.3309,486.0933,946,904,0,641.477,3.599829,1,video,3,2,1
VRTag_029,13,1,13,500.0361,582.3003,1287,572,0,787.0313,5.766565,1,video,3,3,0
VRTag_029,14,1,6,697.3995,864.5818,1162,162,0,842.3033,4.94994,1,video,2,3,-1
VRTag_029,15,1,12,1302.789,594.1561,1273,161,0,434.1792,2.416504,1,video,1,1,0
VRTag_029,16,1,15,1157.099,269.9163,347,608,0,877.8165,5.783264,1,video,1,1,0
VRTag_029,17,1,32,695.4242,662.2871,768,262,0,406.8133,5.066583,1,video,3,3,0
VRTag_029,18,1,21,449.5037,544.3041,1390,706,0,954.2949,6.333212,1,video,3,3,0
VRTag_029,19,1,16,1280.106,173.9891,368,704,0,1054.916,11.3999,1,video,1,1,0
VRTag_029,20,1,17,1398.639,449.2341,1274,582,1,182.1036,2.916586,1,video,1,1,0
VRTag_029,21,1,31,818.593,652.505,511,357,0,426.5403,3.833276,1,video,1,1,0
VRTag_029,22,1,40,1106.147,429.8252,928,438,1,178.3341,2.083213,1,video,1,1,0
VRTag_029,23,1,47,1061.783,116.7752,630,920,0,911.9248,2.499912,1,video,1,4,-3
VRTag_029,24,1,14,1407.965,746.2939,1228,603,0,230.0449,1.783264,1,video,1,1,0
VRTag_031,1,1,25,1116.903,926.4477,732,299,0,736.0983,6.641471,1,video,4,1,3
VRTag_031,2,1,23,659.2369,631.8755,591,916,0,292.2037,2.366523,1,video,3,2,1
VRTag_031,3,1,7,1179.408,756.3973,1325,199,0,576.0978,2.266379,1,video,4,1,3
VRTag_031,4,1,5,834.1356,823.7705,560,135,0,741.3199,3.316628,1,video,4,1,3
VRTag_031,5,1,35,1082.497,861.4959,1485,316,0,677.9194,3.149923,1,video,4,1,3
VRTag_031,6,1,4,889.4722,492.7391,599,837,0,450.4328,7.6999,1,video,1,4,-3
VRTag_031,7,1,44,1405.031,374.2152,695,242,0,722.2357,2.449884,1,video,1,1,0
VRTag_031,8,1,30,1209.509,931.9777,959,683,0,353.192,1.66658,1,video,4,1,3
VRTag_031,9,1,37,552.9771,680.5426,1040,92,0,763.9199,3.383278,1,video,3,3,0
VRTag_031,10,1,3,1356.644,443.4588,1353,586,1,142.5878,2.166597,1,video,1,1,0
VRTag_031,11,1,27,1254.422,166.5262,1495,421,0,350.192,6.049912,1,video,1,1,0
VRTag_031,12,1,18,484.4999,528.0667,677,351,0,261.5509,2.59995,1,video,3,3,0
VRTag_031,13,1,28,1194.171,118.8257,657,104,0,537.3756,2.433286,1,video,1,1,0
VRTag_031,14,1,39,484.7133,461.149,451,294,1,170.515,1.983292,1,video,3,3,0
VRTag_031,15,1,29,512.4932,530.0053,1079,618,0,573.3001,1.666581,1,video,3,3,0
VRTag_031,16,1,2,562.941,811.4592,627,606,0,215.2139,2.449964,1,video,2,3,-1
VRTag_031,17,1,24,834.4389,891.6766,1510,655,0,715.8202,9.883267,1,video,4,1,3
VRTag_031,18,1,8,531.4587,111.4429,557,927,0,815.957,3.299878,1,video,3,2,1
VRTag_031,19,1,43,709.8672,370.0923,616,749,0,390.3615,3.433286,1,video,3,3,0
VRTag_031,20,1,9,1421.063,718.864,1300,139,0,592.3669,1.633247,1,video,1,1,0
VRTag_031,21,1,36,531.4377,811.7892,1492,557,0,993.7794,3.033227,1,video,2,3,-1
VRTag_031,22,1,38,959.1477,687.9556,584,753,0,380.7447,3.09991,1,video,1,4,-3
VRTag_031,23,1,42,1091.64,582.45,1425,717,0,359.4894,5.033235,1,video,1,1,0
VRTag_031,24,1,10,1113.665,751.677,1251,869,1,180.6258,2.450001,1,video,4,4,0
VRTag_032,1,1,36,533.4084,555.1144,627,425,1,160.2784,4.908305,1,video,3,3,0
VRTag_032,2,1,44,634.5082,271.2946,776,278,1,141.6506,4.916687,1,video,3,3,0
VRTag_032,3,1,38,586.7927,215.4855,680,927,0,717.5935,2.516534,1,video,3,2,1
VRTag_032,4,1,27,953.3967,727.1145,1188,174,0,600.8114,5.566651,1,video,1,1,0
VRTag_032,5,1,23,1454.532,811.5869,635,175,0,1037.726,3.766676,1,video,4,1,3
VRTag_032,6,1,3,482.3014,678.8758,564,865,0,203.2655,4.449957,1,video,3,2,1
VRTag_032,7,1,24,616.3111,702.7982,1172,92,0,825.7509,4.449973,1,video,3,3,0
VRTag_032,8,1,9,688.7086,183.0644,747,822,0,641.5891,7.633245,1,video,3,2,1
VRTag_032,9,1,2,531.5908,345.8586,745,689,0,404.091,4.949978,1,video,3,3,0
VRTag_032,10,1,4,614.0728,466.964,507,874,0,420.8835,3.049942,1,video,3,2,1
VRTag_032,11,1,30,991.5749,198.9124,651,471,0,435.9161,8.416627,1,video,1,1,0
VRTag_032,12,1,25,1443.319,369.0183,790,162,0,685.3338,7.816613,1,video,1,1,0
VRTag_032,13,1,5,560.2893,745.2833,1404,916,0,860.8089,3.149985,1,video,3,2,1
VRTag_032,14,1,35,1464.412,963.0024,517,486,0,1060.717,9.18328,1,video,4,1,3
VRTag_032,15,1,10,822.6676,527.6925,964,709,0,229.8853,3.133238,1,video,1,1,0
VRTag_032,16,1,43,1016.076,930.8349,1290,919,0,274.1794,3.199873,1,video,4,4,0
VRTag_032,17,1,39,1056.978,279.7707,1415,691,0,545.2427,4.533307,1,video,1,1,0
VRTag_032,18,1,18,484.966,670.0491,882,143,0,659.8612,8.099949,1,video,3,3,0
VRTag_032,19,1,28,475.9952,961.9355,987,840,0,525.3515,2.433267,1,video,2,2,0
VRTag_032,20,1,42,1354.734,688.5286,501,622,0,856.3221,4.949973,1,video,1,1,0
VRTag_032,21,1,7,1439.489,793.2108,493,167,0,1134.892,2.633333,1,video,4,1,3
VRTag_032,22,1,29,885.7981,519.2689,1158,167,0,445.1823,5.63328,1,video,1,1,0
VRTag_032,23,1,37,957.1497,840.7737,993,913,1,80.63424,2.949934,1,video,4,4,0
VRTag_032,24,1,8,638.9105,892.5073,963,167,0,794.6036,2.566628,1,video,2,3,-1
VRTag_042,1,1,26,1080.353,412.6007,1372,886,0,556.0257,3.633289,1,video,1,4,-3
VRTag_042,2,1,31,584.5834,377.8527,530,399,1,58.53677,2.966646,1,video,3,3,0
VRTag_042,3,1,13,1026.347,604.6074,1298,240,0,454.6798,2.866483,1,video,1,1,0
VRTag_042,4,1,46,897.5558,717.7595,964,547,1,183.2311,2.733313,1,video,1,1,0
VRTag_042,5,1,45,521.7826,143.1597,1307,163,0,785.468,2.983294,1,video,3,3,0
VRTag_042,6,1,32,503.442,951.3935,470,374,0,578.3611,3.399926,1,video,2,3,-1
VRTag_042,7,1,18,1236.698,733.949,597,826,0,646.2871,2.483228,1,video,1,4,-3
VRTag_042,8,1,6,507.3888,848.1322,1036,466,0,652.269,6.399922,1,video,2,3,-1
VRTag_042,9,1,14,1163.501,214.8073,1216,197,1,55.43683,3.683272,1,video,1,1,0
VRTag_042,10,1,34,818.9443,136.7741,1040,778,0,678.2597,6.133211,1,video,1,4,-3
VRTag_042,11,1,21,669.231,875.1929,887,161,0,746.6558,4.816537,1,video,2,3,-1
VRTag_042,12,1,20,529.339,143.2798,731,308,0,260.3842,1.66659,1,video,3,3,0
VRTag_042,13,1,12,1263.183,661.0196,1357,858,0,218.181,3.366634,1,video,1,4,-3
VRTag_042,14,1,40,579.8694,538.2967,1243,130,0,778.748,3.066567,1,video,3,3,0
VRTag_042,15,1,15,1413.984,792.2819,1319,647,1,173.5765,7.516564,1,video,4,1,3
VRTag_042,16,1,48,1306.851,442.7257,1113,689,0,313.4154,4.13325,1,video,1,1,0
VRTag_042,17,1,11,824.4412,760.3565,773,799,1,64.33909,2.666553,1,video,4,4,0
VRTag_042,18,1,17,758.3644,786.4893,1384,629,0,645.1533,4.066558,1,video,4,1,3
VRTag_042,19,1,47,1359.896,889.4769,794,407,0,743.6546,3.033266,1,video,4,1,3
VRTag_042,20,1,16,1273.089,489.0765,646,182,0,698.2381,4.049921,1,video,1,1,0
VRTag_042,21,1,22,1331.343,901.0736,1421,888,1,90.60497,8.616594,1,video,4,4,0
VRTag_042,22,1,33,1291.766,793.3514,1346,547,0,252.2506,2.199914,1,video,4,1,3
VRTag_042,23,1,41,890.0183,142.0971,693,534,0,438.639,6.46657,1,video,1,1,0
VRTag_042,24,1,1,562.1123,935.1802,513,898,1,61.59858,2.233355,1,video,2,2,0
VRTag_004,25,1,5,1023.647,363.4176,560,267,0,473.5663,2.883295,2,video,1,1,0
VRTag_004,26,1,9,534.4372,161.2045,1351,789,0,1030.001,5.616643,2,video,3,2,1
VRTag_004,27,1,42,1027.73,950.4854,1357,676,0,428.6737,3.316547,2,video,4,1,3
VRTag_004,28,1,30,587.7682,219.4759,632,547,0,330.4973,1.916607,2,video,3,3,0
VRTag_004,29,1,25,608.5297,560.0752,522,548,1,87.36822,2.916571,2,video,3,3,0
VRTag_004,30,1,27,1470.354,424.3326,1398,544,1,139.8405,4.583238,2,video,1,1,0
VRTag_004,31,1,23,1463.272,468.8969,762,921,0,834.3737,7.949917,2,video,1,4,-3
VRTag_004,32,1,29,1238.672,883.8056,775,685,0,504.4956,5.649946,2,video,4,1,3
VRTag_004,33,1,43,529.2393,578.7317,1404,518,0,876.8664,4.083251,2,video,3,3,0
VRTag_004,34,1,39,472.0379,488.485,707,799,0,389.3928,6.749952,2,video,3,2,1
VRTag_004,35,1,2,654.2967,757.4363,1324,347,0,785.4683,3.166612,2,video,2,3,-1
VRTag_004,36,1,10,1256.356,722.3654,509,171,0,928.7332,4.333286,2,video,1,1,0
VRTag_004,37,1,44,597.0003,910.5029,519,529,0,389.3951,2.099922,2,video,2,3,-1
VRTag_004,38,1,4,1176.674,515.2168,1270,330,0,207.4006,5.749949,2,video,1,1,0
VRTag_004,39,1,18,879.3494,424.7477,521,911,0,604.0328,3.14992,2,video,1,4,-3
VRTag_004,40,1,8,1207.872,618.6556,1416,471,0,255.1851,2.783228,2,video,1,1,0
VRTag_004,41,1,38,1046.932,223.1053,1401,554,0,484.6186,9.933189,2,video,1,1,0
VRTag_004,42,1,28,846.7058,246.6719,778,394,1,162.561,2.266566,2,video,1,1,0
VRTag_004,43,1,37,730.3889,513.8439,781,544,1,58.91411,2.116614,2,video,3,3,0
VRTag_004,44,1,3,687.3292,249.5658,1136,540,0,534.4694,1.916544,2,video,3,3,0
VRTag_004,45,1,36,450.0326,607.0246,1181,732,0,741.5741,1.799953,2,video,3,3,0
VRTag_004,46,1,24,1244.092,384.1682,638,178,0,640.1977,3.23331,2,video,1,1,0
VRTag_004,47,1,7,584.9852,377.5215,1269,806,0,807.1369,3.0832,2,video,3,2,1
VRTag_004,48,1,35,715.8719,664.4652,1154,916,0,505.199,1.716601,2,video,NaN,NaN,NaN
VRTag_007,25,1,8,726.2688,571.4897,1169,860,0,528.4403,2.824708,2,video,3,2,1
VRTag_007,26,1,25,923.9624,888.1325,775,777,1,185.8501,2.166597,2,video,4,4,0
VRTag_007,27,1,2,814.3153,840.789,1271,566,0,532.9821,2.366425,2,video,4,1,3
VRTag_007,28,1,24,1111.608,624.4696,1415,274,0,463.5466,2.899923,2,video,1,1,0
VRTag_007,29,1,44,1211.89,895.7911,815,207,0,794.9559,1.999944,2,video,4,1,3
VRTag_007,30,1,27,563.7664,664.8497,902,795,0,362.4101,1.983269,2,video,3,2,1
VRTag_007,31,1,38,760.1485,751.9358,952,323,0,469.886,2.533274,2,video,4,1,3
VRTag_007,32,1,29,1405.007,162.0825,1188,896,0,765.3279,1.966594,2,video,1,4,-3
VRTag_007,33,1,42,1257.369,714.5516,588,230,0,826.3444,2.283256,2,video,1,1,0
VRTag_007,34,1,39,810.7628,681.7539,819,345,0,336.8547,2.366569,2,video,1,1,0
VRTag_007,35,1,43,632.4665,743.8294,958,758,0,325.8417,2.316602,2,video,3,2,1
VRTag_007,36,1,28,836.7077,467.3857,915,161,0,316.2307,2.299939,2,video,1,1,0
VRTag_007,37,1,5,1099.609,264.637,803,735,0,556.074,2.799918,2,video,1,1,0
VRTag_007,38,1,4,1130.096,297.3461,1181,751,0,456.5009,3.749924,2,video,1,4,-3
VRTag_007,39,1,3,1421.462,559.0708,862,343,0,599.7368,4.966605,2,video,1,1,0
VRTag_007,40,1,37,1167.543,319.6742,877,640,0,432.4626,2.016519,2,video,1,1,0
VRTag_007,41,1,9,807.1291,760.5935,813,820,1,59.69594,6.133292,2,video,4,4,0
VRTag_007,42,1,7,1471.495,941.8993,1217,360,0,635.1176,6.816583,2,video,4,1,3
VRTag_007,43,1,23,1311.67,586.0976,1072,414,0,295.0585,1.99984,2,video,1,1,0
VRTag_007,44,1,35,897.8621,412.8931,1207,550,0,338.1782,2.166511,2,video,1,1,0
VRTag_007,45,1,30,1096.72,894.6056,1042,246,0,650.9098,8.333162,2,video,4,1,3
VRTag_007,46,1,10,1250.838,241.2645,832,679,0,605.8364,4.533221,2,video,1,1,0
VRTag_007,47,1,18,1135.65,179.8199,1204,229,1,84.20427,3.616569,2,video,1,1,0
VRTag_007,48,1,36,1350.686,321.1371,1210,439,1,183.5325,7.116555,2,video,NaN,NaN,NaN
VRTag_008,25,1,40,768.893,311.8297,957,271,1,192.4871,5.249866,2,video,1,1,0
VRTag_008,26,1,16,1165,498.1905,709,626,0,473.5733,6.066623,2,video,1,1,0
VRTag_008,27,1,33,1247.47,707.8422,1488,550,0,287.6954,2.466509,2,video,1,1,0
VRTag_008,28,1,6,1159.416,940.4337,1472,374,0,646.9591,6.166544,2,video,4,1,3
VRTag_008,29,1,47,1050.814,167.9891,722,272,0,344.8719,2.499927,2,video,1,1,0
VRTag_008,30,1,45,1126.423,163.6415,961,566,0,435.0371,3.71659,2,video,1,1,0
VRTag_008,31,1,34,918.41,477.2865,574,269,0,402.4941,2.483297,2,video,1,1,0
VRTag_008,32,1,1,1421.865,459.4069,767,645,0,680.6563,5.483259,2,video,1,1,0
VRTag_008,33,1,26,727.0957,636.9258,558,380,0,307.578,4.78331,2,video,3,3,0
VRTag_008,34,1,22,947.8728,799.7992,1268,797,0,320.1394,4.783185,2,video,4,4,0
VRTag_008,35,1,20,1198.783,895.0673,1324,736,0,202.4391,4.63326,2,video,4,1,3
VRTag_008,36,1,18,675.9123,298.6475,1300,785,0,791.2169,3.283281,2,video,3,2,1
VRTag_008,37,1,13,1063.977,649.8731,826,653,0,237.9975,2.099947,2,video,1,1,0
VRTag_008,38,1,15,738.7866,162.6488,822,831,0,673.5115,1.983269,2,video,3,2,1
VRTag_008,39,1,31,1292.815,536.9986,1278,375,1,162.6746,4.049912,2,video,1,1,0
VRTag_008,40,1,17,1335.442,154.9955,1226,271,1,159.4821,7.96656,2,video,1,1,0
VRTag_008,41,1,12,904.0121,676.053,960,876,0,207.6378,2.116563,2,video,1,4,-3
VRTag_008,42,1,46,518.2624,747.531,763,430,0,400.902,5.616543,2,video,3,3,0
VRTag_008,43,1,21,1133.573,322.6012,588,269,0,548.2002,3.616573,2,video,1,1,0
VRTag_008,44,1,32,886.8767,939.5459,520,270,0,763.4725,2.583262,2,video,4,1,3
VRTag_008,45,1,14,1101.34,132.1156,1223,424,0,316.2242,5.033237,2,video,1,1,0
VRTag_008,46,1,11,633.3642,379.083,1126,697,0,586.3116,5.099912,2,video,3,3,0
VRTag_008,47,1,48,778.3409,737.3964,814,443,0,296.5481,3.299906,2,video,1,1,0
VRTag_008,48,1,41,1281.87,882.432,1094,272,0,638.6879,3.099925,2,video,NaN,NaN,NaN
VRTag_009,25,1,32,1281.307,169.6921,1059,731,0,603.7278,8.366359,2,video,1,1,0
VRTag_009,26,1,20,731.1223,259.4339,539,642,0,428.0978,3.333333,2,video,3,3,0
VRTag_009,27,1,41,1371.217,328.4903,535,128,0,859.9155,4.566599,2,video,1,1,0
VRTag_009,28,1,16,1255.616,717.6139,1217,444,0,276.3254,2.766628,2,video,1,1,0
VRTag_009,29,1,11,627.6132,331.733,1184,548,0,596.9403,4.316555,2,video,3,3,0
VRTag_009,30,1,1,1132.97,483.9225,1178,397,1,97.89392,7.283258,2,video,1,1,0
VRTag_009,31,1,21,712.867,620.3439,855,653,1,145.8362,3.566549,2,video,3,3,0
VRTag_009,32,1,22,1248.002,347.4494,578,874,0,852.1493,3.333247,2,video,1,4,-3
VRTag_009,33,1,15,728.3154,713.6603,676,730,1,54.80777,3.399909,2,video,3,3,0
VRTag_009,34,1,34,1339.972,875.2115,666,517,0,763.2524,4.06657,2,video,4,1,3
VRTag_009,35,1,47,480.4714,126.4626,659,308,0,254.6139,3.299865,2,video,3,3,0
VRTag_009,36,1,18,1458.257,167.076,1052,129,0,408.0378,4.43322,2,video,1,1,0
VRTag_009,37,1,33,1104.347,127.3436,1101,667,0,539.6668,4.433302,2,video,1,1,0
VRTag_009,38,1,46,1374.724,648.6784,1341,635,1,36.39225,6.433244,2,video,1,1,0
VRTag_009,39,1,17,727.7277,731.2601,1199,882,0,494.7929,4.883235,2,video,3,2,1
VRTag_009,40,1,45,639.7861,514.2467,923,340,0,332.5237,4.233262,2,video,3,3,0
VRTag_009,41,1,48,481.7891,822.5664,696,428,0,448.9643,3.249916,2,video,2,3,-1
VRTag_009,42,1,12,1259.43,563.9661,1176,518,1,95.25474,3.316581,2,video,1,1,0
VRTag_009,43,1,40,896.8325,807.417,783,421,0,402.8349,3.43322,2,video,4,1,3
VRTag_009,44,1,13,1229.408,327.6952,557,535,0,703.6389,3.916602,2,video,1,1,0
VRTag_009,45,1,14,1188.784,116.1408,535,194,0,658.4033,2.8832,2,video,1,1,0
VRTag_009,46,1,6,667.9943,874.3482,1197,193,0,862.6021,3.466577,2,video,2,3,-1
VRTag_009,47,1,26,561.7796,157.306,1049,840,0,838.7221,4.433236,2,video,3,2,1
VRTag_009,48,1,31,790.1259,807.3013,1054,729,0,275.2465,9.933202,2,video,NaN,NaN,NaN
VRTag_014,25,1,14,758.8978,152.6964,826,395,0,251.4234,4.133196,2,video,1,1,0
VRTag_014,26,1,22,1167.485,178.8664,511,555,0,756.6038,4.299922,2,video,1,1,0
VRTag_014,27,1,16,1044.748,285.5551,1108,219,1,91.81707,3.916589,2,video,1,1,0
VRTag_014,28,1,33,553.8179,504.9114,1292,241,0,783.9401,2.483197,2,video,3,3,0
VRTag_014,29,1,6,1329.478,490.7432,1091,435,0,244.9059,3.949904,2,video,1,1,0
VRTag_014,30,1,45,1291.859,798.045,1371,555,0,255.6055,2.416555,2,video,4,1,3
VRTag_014,31,1,31,1034.346,612.0095,610,406,0,471.7091,3.199916,2,video,1,1,0
VRTag_014,32,1,34,1102.191,372.9619,1326,758,0,445.3593,6.033225,2,video,1,4,-3
VRTag_014,33,1,18,994.7312,906.9215,973,524,0,383.5376,2.299925,2,video,4,1,3
VRTag_014,34,1,48,1264.883,473.7692,1389,413,1,138.1955,3.666513,2,video,1,1,0
VRTag_014,35,1,11,1337.954,778.7805,1262,787,1,76.39738,2.866534,2,video,4,4,0
VRTag_014,36,1,13,1394.985,383.0158,1113,739,0,454.1368,6.766627,2,video,1,1,0
VRTag_014,37,1,17,1368.176,179.4219,529,653,0,963.5833,5.683253,2,video,1,1,0
VRTag_014,38,1,32,985.7252,483.8568,587,523,0,400.6419,6.733186,2,video,1,1,0
VRTag_014,39,1,41,795.3649,522.5712,650,267,0,294.0197,2.566606,2,video,1,1,0
VRTag_014,40,1,47,849.4844,605.4849,1371,200,0,660.6032,4.6999,2,video,1,1,0
VRTag_014,41,1,21,1259.27,659.6687,498,531,0,772.0671,3.666568,2,video,1,1,0
VRTag_014,42,1,1,1200.574,755.5924,1087,291,0,478.273,3.633282,2,video,4,1,3
VRTag_014,43,1,12,755.4427,358.0251,1230,669,0,567.3711,3.949939,2,video,1,1,0
VRTag_014,44,1,40,925.8889,349.5766,606,191,0,357.037,3.149939,2,video,1,1,0
VRTag_014,45,1,46,670.2504,858.0984,945,777,0,286.4687,4.333211,2,video,2,2,0
VRTag_014,46,1,26,1314.381,268.2895,460,333,0,856.8283,6.633308,2,video,1,1,0
VRTag_014,47,1,15,1111.088,429.4949,982,750,0,345.5247,4.116514,2,video,1,1,0
VRTag_014,48,1,20,994.1273,356.8898,1470,412,0,479.0532,5.233286,2,video,NaN,4,NaN
VRTag_015,25,1,7,1344.527,350.0295,671,548,0,702.0189,3.799819,2,video,1,1,0
VRTag_015,26,1,23,957.5281,169.9484,493,149,0,465.0002,3.333303,2,video,1,1,0
VRTag_015,27,1,37,1090.503,712.572,653,304,0,598.6153,4.033179,2,video,1,1,0
VRTag_015,28,1,35,685.6033,327.9043,747,389,1,86.61547,4.449945,2,video,3,3,0
VRTag_015,29,1,44,1175.006,773.1599,960,540,0,317.1612,2.149904,2,video,4,1,3
VRTag_015,30,1,5,1319.856,549.9797,1401,689,1,160.9686,2.71683,2,video,1,1,0
VRTag_015,31,1,42,1215.115,409.2355,834,540,0,402.9238,4.533336,2,video,1,1,0
VRTag_015,32,1,28,1268.563,660.4636,771,858,0,535.3403,4.866623,2,video,1,4,-3
VRTag_015,33,1,24,1299.872,602.6307,828,915,0,565.8955,2.783255,2,video,1,4,-3
VRTag_015,34,1,2,1108.547,776.7239,1224,700,1,138.6216,2.833268,2,video,4,1,3
VRTag_015,35,1,9,1320.223,645.7347,1257,535,1,127.5119,6.449927,2,video,1,1,0
VRTag_015,36,1,27,742.0589,379.9562,1157,901,0,666.0801,5.183298,2,video,3,2,1
VRTag_015,37,1,39,1044.123,159.0218,786,801,0,691.9274,3.333339,2,video,1,4,-3
VRTag_015,38,1,29,1398.952,254.9399,746,389,0,666.5717,6.183239,2,video,1,1,0
VRTag_015,39,1,25,546.0842,429.8611,1157,253,0,636.0016,3.299959,2,video,3,3,0
VRTag_015,40,1,36,980.1499,925.9067,653,690,0,403.3349,3.233227,2,video,4,1,3
VRTag_015,41,1,30,1471.695,270.0328,775,409,0,710.4194,5.033211,2,video,1,1,0
VRTag_015,42,1,8,1313.786,709.4543,1296,647,1,64.93761,6.199948,2,video,1,1,0
VRTag_015,43,1,43,1465.103,132.6368,783,899,0,1025.952,2.799896,2,video,1,4,-3
VRTag_015,44,1,18,1400.305,737.6677,1394,174,0,563.703,3.283245,2,video,1,1,0
VRTag_015,45,1,38,827.4054,722.9087,646,689,1,184.5473,5.466613,2,video,1,1,0
VRTag_015,46,1,4,619.405,743.7897,646,549,1,196.5968,2.949889,2,video,3,3,0
VRTag_015,47,1,10,925.5564,162.3567,744,392,0,292.7436,2.966546,2,video,1,1,0
VRTag_015,48,1,3,1339.824,953.6029,1110,144,0,841.5912,3.383242,2,video,NaN,NaN,NaN
VRTag_016,25,1,33,1426.723,211.4206,1134,437,0,369.5578,3.683186,2,video,1,1,0
VRTag_016,26,1,20,607.9936,665.6338,1199,243,0,726.5727,3.36659,2,video,3,3,0
VRTag_016,27,1,46,1459.401,783.568,608,260,0,999.5036,3.616601,2,video,4,1,3
VRTag_016,28,1,17,799.5141,730.2305,1124,839,0,342.2308,2.683251,2,video,1,4,-3
VRTag_016,29,1,13,860.8742,172.6422,795,242,1,95.65519,1.783239,2,video,1,1,0
VRTag_016,30,1,26,488.9012,461.9697,807,538,0,327.0588,2.099938,2,video,3,3,0
VRTag_016,31,1,40,1219.205,579.1269,806,854,0,496.2799,2.24992,2,video,1,4,-3
VRTag_016,32,1,34,662.1334,838.4475,666,982,1,143.6046,2.083207,2,video,2,2,0
VRTag_016,33,1,1,697.6869,368.9399,1427,958,0,937.491,2.88325,2,video,3,2,1
VRTag_016,34,1,21,1067.055,922.0802,663,631,0,497.984,5.783222,2,video,4,1,3
VRTag_016,35,1,41,448.9631,936.2643,1153,410,0,878.9893,2.933237,2,video,2,3,-1
VRTag_016,36,1,15,688.023,279.5538,798,227,1,121.8887,2.516572,2,video,3,3,0
VRTag_016,37,1,6,1325.305,967.1528,818,666,0,589.9588,1.966617,2,video,4,1,3
VRTag_016,38,1,18,1336.19,961.8056,1086,856,0,271.6433,5.783187,2,video,4,4,0
VRTag_016,39,1,14,1462.045,442.7524,714,635,0,772.3541,1.833245,2,video,1,1,0
VRTag_016,40,1,12,602.9219,705.3162,1479,436,0,916.5392,1.833272,2,video,3,3,0
VRTag_016,41,1,16,535.8049,861.5938,824,214,0,708.8259,1.816593,2,video,2,3,-1
VRTag_016,42,1,32,1426.182,147.8715,1453,764,0,616.7118,5.88318,2,video,1,4,-3
VRTag_016,43,1,47,906.3788,318.1512,549,430,0,374.4726,2.183255,2,video,1,1,0
VRTag_016,44,1,31,644.8723,850.0821,1105,684,0,489.1838,3.483254,2,video,2,3,-1
VRTag_016,45,1,11,1057.188,366.9492,637,685,0,526.986,1.766588,2,video,1,1,0
VRTag_016,46,1,45,1273.672,870.998,1107,444,0,458.374,1.799909,2,video,4,1,3
VRTag_016,47,1,22,531.4091,372.4311,890,587,0,417.8842,4.483265,2,video,3,3,0
VRTag_016,48,1,48,458.1551,802.1469,1098,450,0,730.3484,1.716601,2,video,NaN,NaN,NaN
VRTag_018,25,1,38,1261.653,464.8997,1196,761,0,303.2914,4.133274,2,video,1,4,-3
VRTag_018,26,1,8,1020.47,685.8893,1040,468,0,218.7628,3.266555,2,video,1,1,0
VRTag_018,27,1,9,741.5377,631.0982,1186,474,0,471.4091,5.749788,2,video,3,3,0
VRTag_018,28,1,24,926.1016,274.6861,575,288,0,351.354,1.94995,2,video,1,1,0
VRTag_018,29,1,44,1325.512,696.5414,669,869,0,678.7858,3.133346,2,video,1,4,-3
VRTag_018,30,1,7,842.1597,602.894,511,239,0,492.0219,3.849895,2,video,1,1,0
VRTag_018,31,1,36,657.0605,569.0422,573,831,0,275.1146,2.799924,2,video,3,2,1
VRTag_018,32,1,35,738.6808,942.2177,980,660,0,371.3244,2.116614,2,video,2,3,-1
VRTag_018,33,1,4,907.0206,158.0326,624,284,0,309.7877,5.516531,2,video,1,1,0
VRTag_018,34,1,27,558.7779,286.2114,1086,876,0,791.0839,2.099946,2,video,3,2,1
VRTag_018,35,1,3,1063.177,626.9563,429,307,0,710.3188,3.216574,2,video,1,1,0
VRTag_018,36,1,25,1469.777,661.4012,805,718,0,667.1818,2.766619,2,video,1,1,0
VRTag_018,37,1,37,554.8882,412.5986,1344,340,0,792.4443,1.799968,2,video,3,3,0
VRTag_018,38,1,42,527.3278,806.0604,970,801,0,442.7011,8.049893,2,video,2,2,0
VRTag_018,39,1,29,622.3143,395.0108,816,740,0,395.6409,4.416567,2,video,3,3,0
VRTag_018,40,1,5,516.6164,148.3115,547,470,0,323.1202,4.899928,2,video,3,3,0
VRTag_018,41,1,18,1404.661,699.756,1324,764,1,103.1187,3.366582,2,video,1,4,-3
VRTag_018,42,1,2,733.9528,478.5677,619,463,1,116.0021,10.33319,2,video,3,3,0
VRTag_018,43,1,30,449.3457,284.5234,1082,451,0,654.1911,6.566551,2,video,3,3,0
VRTag_018,44,1,23,763.4604,282.3163,720,834,0,553.3929,9.299907,2,video,1,4,-3
VRTag_018,45,1,28,544.9826,831.3631,1241,863,0,696.736,1.599952,2,video,2,2,0
VRTag_018,46,1,10,1041.861,408.1828,784,573,0,306.0339,5.266619,2,video,1,1,0
VRTag_018,47,1,39,700.0739,933.4925,1212,917,0,512.1917,1.699908,2,video,2,2,0
VRTag_018,48,1,43,953.0407,853.4175,1191,280,0,620.8319,2.516552,2,video,NaN,NaN,NaN
VRTag_019,25,1,25,468.0503,413.9195,1225,778,0,839.9568,4.983259,2,video,3,2,1
VRTag_019,26,1,23,1228.152,833.3729,1138,777,1,106.3261,4.883233,2,video,4,4,0
VRTag_019,27,1,4,1398.185,647.4362,854,809,0,567.6619,3.899912,2,video,1,4,-3
VRTag_019,28,1,37,1163.535,421.9078,1018,155,0,304.0068,3.016604,2,video,1,1,0
VRTag_019,29,1,5,625.9925,559.0066,729,188,0,385.0408,8.249873,2,video,3,3,0
VRTag_019,30,1,27,1068.841,820.5609,1282,163,0,691.2474,8.899822,2,video,4,1,3
VRTag_019,31,1,3,1441.534,255.0198,1431,143,1,112.5139,6.566597,2,video,1,1,0
VRTag_019,32,1,29,1295.827,531.6298,508,147,0,876.7052,6.299873,2,video,1,1,0
VRTag_019,33,1,36,665.5307,698.3964,765,814,1,152.5068,4.86653,2,video,3,2,1
VRTag_019,34,1,35,1133.491,448.5765,648,636,0,520.4124,3.883244,2,video,1,1,0
VRTag_019,35,1,24,890.4405,367.5091,789,567,0,223.8007,4.01659,2,video,1,1,0
VRTag_019,36,1,9,711.0988,505.8218,1363,536,0,652.5993,5.499923,2,video,3,3,0
VRTag_019,37,1,43,786.0884,569.4947,1377,344,0,632.4748,5.383171,2,video,1,1,0
VRTag_019,38,1,10,867.008,930.63,642,470,0,512.6486,4.683256,2,video,4,1,3
VRTag_019,39,1,28,1187.89,385.2145,765,176,0,471.8117,4.949955,2,video,1,1,0
VRTag_019,40,1,39,1215.759,305.1317,626,796,0,767.3121,7.349921,2,video,1,4,-3
VRTag_019,41,1,42,1278.781,282.5927,961,508,0,389.6064,2.799876,2,video,1,1,0
VRTag_019,42,1,18,790.5078,333.3576,1183,404,0,398.7988,4.049911,2,video,1,1,0
VRTag_019,43,1,30,1449.956,653.9203,1188,800,0,299.934,5.566496,2,video,1,4,-3
VRTag_019,44,1,7,1290.999,548.9962,1299,812,0,263.1254,3.383264,2,video,1,4,-3
VRTag_019,45,1,44,1179.964,843.8925,636,298,0,770.646,3.299934,2,video,4,1,3
VRTag_019,46,1,2,675.1086,530.3141,674,536,1,5.792971,3.533249,2,video,3,3,0
VRTag_019,47,1,38,968.6682,205.9091,1268,171,0,301.3605,3.933178,2,video,1,1,0
VRTag_019,48,1,8,735.3214,368.4371,1254,541,0,546.631,5.649921,2,video,NaN,NaN,NaN
VRTag_021,25,1,28,618.4304,578.4926,1352,244,0,806.2317,5.599818,2,video,3,3,0
VRTag_021,26,1,35,894.8989,467.6065,1282,343,0,406.6621,4.549849,2,video,1,1,0
VRTag_021,27,1,42,843.9654,645.4588,913,565,1,106.016,4.516527,2,video,1,1,0
VRTag_021,28,1,23,846.6242,769.4664,814,676,1,98.99648,7.149828,2,video,4,1,3
VRTag_021,29,1,3,473.7271,847.0061,743,236,0,667.7098,4.283242,2,video,2,3,-1
VRTag_021,30,1,25,1362.508,127.5496,1343,242,1,116.1011,5.183225,2,video,1,1,0
VRTag_021,31,1,18,739.7288,286.6134,1175,558,0,512.9441,7.799845,2,video,3,3,0
VRTag_021,32,1,10,673.5605,132.0872,1351,224,0,683.6463,2.733278,2,video,3,3,0
VRTag_021,33,1,9,857.477,576.0529,595,444,0,293.8234,3.66656,2,video,1,1,0
VRTag_021,34,1,7,779.2618,172.4695,734,758,0,587.2773,1.999903,2,video,1,4,-3
VRTag_021,35,1,27,487.2558,307.6998,709,237,0,232.7422,5.633247,2,video,3,3,0
VRTag_021,36,1,29,798.0119,271.3953,1341,241,0,543.8381,1.8499,2,video,1,1,0
VRTag_021,37,1,4,506.4242,647.3599,732,754,0,249.5126,3.116543,2,video,3,2,1
VRTag_021,38,1,8,1372.925,970.4169,1383,428,0,542.5104,2.23322,2,video,4,1,3
VRTag_021,39,1,24,820.0739,848.3623,921,569,0,297.0343,3.783211,2,video,4,1,3
VRTag_021,40,1,39,1425.825,858.4601,1172,539,0,408.0216,3.099903,2,video,4,1,3
VRTag_021,41,1,5,1094.063,743.4594,1366,876,0,302.5171,1.833178,2,video,1,4,-3
VRTag_021,42,1,2,1386.469,536.7868,481,458,0,908.8904,4.966527,2,video,1,1,0
VRTag_021,43,1,30,1022.038,768.9908,960,887,1,133.3226,3.666596,2,video,4,4,0
VRTag_021,44,1,43,1202.472,229.6922,1008,514,0,344.4565,4.149879,2,video,1,1,0
VRTag_021,45,1,37,672.4701,147.3972,1235,244,0,570.7643,2.93327,2,video,3,3,0
VRTag_021,46,1,44,1166.414,544.9712,1172,537,1,9.733809,2.383245,2,video,1,1,0
VRTag_021,47,1,38,1221,138.1242,685,142,0,536.0144,4.199879,2,video,1,1,0
VRTag_021,48,1,36,693.0786,257.0525,965,775,0,584.9879,3.999868,2,video,NaN,NaN,NaN
VRTag_022,25,1,12,1356.721,571.367,1145,376,0,288.0868,5.116577,2,video,1,1,0
VRTag_022,26,1,33,775.6365,462.8696,1157,137,0,501.6265,2.183243,2,video,1,1,0
VRTag_022,27,1,11,465.545,525.5587,947,581,0,484.6366,2.066504,2,video,3,3,0
VRTag_022,28,1,16,891.7551,855.8983,764,295,0,575.2637,2.200006,2,video,4,1,3
VRTag_022,29,1,21,482.7627,392.6963,773,582,0,346.5163,2.133283,2,video,3,3,0
VRTag_022,30,1,40,1269.048,648.3356,1156,81,0,578.489,1.74991,2,video,1,1,0
VRTag_022,31,1,18,1078.158,246.4261,789,816,0,638.7696,2.116616,2,video,1,4,-3
VRTag_022,32,1,48,482.644,855.4572,1153,474,0,771.289,1.783187,2,video,2,3,-1
VRTag_022,33,1,32,579.7444,776.7424,524,593,1,192.0122,1.533286,2,video,2,3,-1
VRTag_022,34,1,13,492.1364,362.5809,753,293,0,269.9839,3.233256,2,video,3,3,0
VRTag_022,35,1,6,469.5059,524.1019,754,383,0,317.5636,4.716573,2,video,3,3,0
VRTag_022,36,1,20,934.6347,564.4337,1380,797,0,502.4315,4.61658,2,video,1,4,-3
VRTag_022,37,1,41,1241.721,757.8504,1148,835,1,121.3903,1.949924,2,video,4,4,0
VRTag_022,38,1,34,924.9272,929.6449,1385,65,0,979.4273,2.249959,2,video,4,1,3
VRTag_022,39,1,26,1376.093,522.5093,875,907,0,631.6073,2.14997,2,video,1,4,-3
VRTag_022,40,1,22,951.1266,630.0339,911,904,0,276.8891,2.399959,2,video,1,4,-3
VRTag_022,41,1,1,757.7571,558.8535,1134,268,0,475.5571,3.016588,2,video,1,1,0
VRTag_022,42,1,17,454.0936,119.2702,519,358,0,247.3959,1.966538,2,video,3,3,0
VRTag_022,43,1,46,1229.107,750.2853,1141,42,0,713.7443,1.866598,2,video,4,1,3
VRTag_022,44,1,15,1192.417,643.43,1139,359,0,289.4026,2.333285,2,video,1,1,0
VRTag_022,45,1,47,685.3369,805.9018,1156,138,0,817.0781,1.733293,2,video,2,3,-1
VRTag_022,46,1,14,480.9168,398.0941,1156,374,0,675.5131,2.299928,2,video,3,3,0
VRTag_022,47,1,31,1125.774,418.4171,731,285,0,416.709,1.733261,2,video,1,1,0
VRTag_022,48,1,45,517.8303,446.6641,775,483,0,259.724,1.933261,2,video,NaN,NaN,NaN
VRTag_024,25,1,26,748.5668,205.304,1414,488,0,722.9926,3.066534,2,video,3,3,0
VRTag_024,26,1,41,546.8805,970.0972,955,826,0,432.8112,6.666559,2,video,2,2,0
VRTag_024,27,1,22,706.905,467.7827,1416,526,0,711.4809,3.199881,2,video,3,3,0
VRTag_024,28,1,32,1467.797,838.2398,449,846,0,1018.826,2.59994,2,video,4,4,0
VRTag_024,29,1,18,819.1387,800.1002,1222,456,0,529.8134,3.416552,2,video,4,1,3
VRTag_024,30,1,33,474.1576,679.7735,1040,830,0,585.4448,2.749891,2,video,3,2,1
VRTag_024,31,1,12,1209.538,514.5188,695,363,0,536.3839,2.616583,2,video,1,1,0
VRTag_024,32,1,14,506.1528,184.1148,762,247,0,263.4622,4.899854,2,video,3,3,0
VRTag_024,33,1,46,1427.843,601.3958,865,818,0,603.0835,3.249891,2,video,1,4,-3
VRTag_024,34,1,15,1183.963,234.1298,1461,550,0,420.1469,5.666588,2,video,1,1,0
VRTag_024,35,1,17,593.436,273.1767,570,873,0,600.281,3.866643,2,video,3,2,1
VRTag_024,36,1,48,609.5662,334.1655,1160,126,0,588.4813,4.149946,2,video,3,3,0
VRTag_024,37,1,34,1022.998,355.1819,830,118,0,305.7833,2.483219,2,video,1,1,0
VRTag_024,38,1,21,481.2692,287.6595,1366,351,0,886.9952,6.366555,2,video,3,3,0
VRTag_024,39,1,1,1230.273,937.9553,422,151,0,1128.097,2.983237,2,video,4,1,3
VRTag_024,40,1,11,1459.221,185.8176,454,287,0,1010.301,2.59991,2,video,1,1,0
VRTag_024,41,1,40,1390.517,894.8923,767,150,0,971.4104,3.016562,2,video,4,1,3
VRTag_024,42,1,6,473.2621,167.6816,1197,470,0,784.3424,3.29987,2,video,3,3,0
VRTag_024,43,1,16,1283.902,496.4508,741,687,0,575.3706,4.416537,2,video,1,1,0
VRTag_024,44,1,31,685.9925,536.4507,509,880,0,386.4614,2.18328,2,video,3,2,1
VRTag_024,45,1,13,1371.15,743.4999,742,350,0,742.0731,5.999893,2,video,1,1,0
VRTag_024,46,1,20,572.4021,384.9604,1524,424,0,952.3984,2.46661,2,video,3,3,0
VRTag_024,47,1,45,1359.705,146.1718,776,879,0,936.8823,2.383202,2,video,1,4,-3
VRTag_024,48,1,47,994.4905,474.1157,971,172,0,303.0276,3.116552,2,video,NaN,NaN,NaN
VRTag_025,25,1,22,893.5749,403.3083,968,522,1,140.0957,4.433295,2,video,1,1,0
VRTag_025,26,1,18,898.2775,894.0058,1478,184,0,916.6169,2.799956,2,video,4,1,3
VRTag_025,27,1,34,1450.24,246.3118,1391,542,0,301.5641,7.066621,2,video,1,1,0
VRTag_025,28,1,21,476.684,278.2287,549,392,1,134.8092,6.683223,2,video,3,3,0
VRTag_025,29,1,40,541.6135,281.2951,1078,419,0,553.7807,1.899907,2,video,3,3,0
VRTag_025,30,1,16,1092.11,829.0024,816,434,0,481.9371,3.583235,2,video,4,1,3
VRTag_025,31,1,1,647.7358,721.2881,539,230,0,503.1773,4.249909,2,video,3,3,0
VRTag_025,32,1,17,1217.644,118.3186,1427,543,0,473.481,2.133229,2,video,1,1,0
VRTag_025,33,1,31,645.7086,200.4575,566,638,0,444.7436,4.133236,2,video,3,3,0
VRTag_025,34,1,41,720.859,530.4795,1316,412,0,606.8198,2.366572,2,video,3,3,0
VRTag_025,35,1,46,1306.393,735.2462,432,935,0,896.9192,2.516565,2,video,1,4,-3
VRTag_025,36,1,15,606.1958,274.5446,1330,915,0,966.4759,5.23324,2,video,3,2,1
VRTag_025,37,1,48,554.9678,825.5876,771,419,0,460.4165,4.449879,2,video,2,3,-1
VRTag_025,38,1,33,712.4117,770.2857,1434,556,0,752.7337,8.383211,2,video,2,3,-1
VRTag_025,39,1,45,605.8189,693.341,447,723,1,161.5645,2.583205,2,video,3,3,0
VRTag_025,40,1,14,528.7931,141.6536,1165,160,0,636.4714,4.683238,2,video,3,3,0
VRTag_025,41,1,20,1054.557,941.4251,1400,690,0,427.253,4.716583,2,video,4,1,3
VRTag_025,42,1,32,560.5238,694.8696,477,397,0,309.3583,5.099905,2,video,3,3,0
VRTag_025,43,1,6,1349.008,775.349,1413,920,1,158.1735,1.983234,2,video,4,4,0
VRTag_025,44,1,13,1437.196,298.4877,496,210,0,945.3463,3.799939,2,video,1,1,0
VRTag_025,45,1,12,1104.093,403.1851,1177,921,0,522.9222,1.949937,2,video,1,4,-3
VRTag_025,46,1,47,666.9651,612.0652,968,357,0,394.5634,4.766553,2,video,3,3,0
VRTag_025,47,1,11,1150.234,942.2764,881,887,0,274.8494,3.983235,2,video,4,4,0
VRTag_025,48,1,26,1320.575,860.2278,710,423,0,750.9793,5.249909,2,video,NaN,NaN,NaN
VRTag_026,25,1,41,1463.253,936.1632,1325,396,0,557.5753,2.049922,2,video,4,1,3
VRTag_026,26,1,33,725.8301,867.581,443,624,0,373.2621,1.649945,2,video,2,3,-1
VRTag_026,27,1,16,1218.588,924.3256,688,902,0,531.0574,2.766479,2,video,4,4,0
VRTag_026,28,1,20,1271.836,132.7773,543,652,0,894.8714,2.233278,2,video,1,1,0
VRTag_026,29,1,22,968.5147,859.9296,1444,936,0,481.5319,2.016547,2,video,4,4,0
VRTag_026,30,1,26,1170.867,637.8306,1325,762,1,197.9265,1.833241,2,video,1,4,-3
VRTag_026,31,1,21,1271.036,647.6189,1274,432,0,215.6393,1.499869,2,video,1,1,0
VRTag_026,32,1,31,1161.68,288.3018,1193,882,0,594.5238,1.649879,2,video,1,4,-3
VRTag_026,33,1,40,865.7265,422.179,536,449,0,330.8156,1.566619,2,video,1,1,0
VRTag_026,34,1,32,973.4334,221.4743,535,621,0,593.165,2.59991,2,video,1,1,0
VRTag_026,35,1,18,533.0495,689.5463,1372,682,0,838.9845,1.799949,2,video,3,3,0
VRTag_026,36,1,45,625.0332,380.7941,427,423,0,202.4808,1.499949,2,video,3,3,0
VRTag_026,37,1,11,1134.231,420.9049,1200,285,1,150.9825,1.566539,2,video,1,1,0
VRTag_026,38,1,1,1352.773,597.4756,729,623,0,624.295,1.883315,2,video,1,1,0
VRTag_026,39,1,15,702.6161,630.6858,721,629,1,18.46103,2.066597,2,video,3,3,0
VRTag_026,40,1,34,1462.22,952.3015,1367,324,0,635.4759,1.766544,2,video,4,1,3
VRTag_026,41,1,12,784.9069,276.5931,697,972,0,700.9411,1.966642,2,video,1,4,-3
VRTag_026,42,1,46,1061.576,453.1953,1333,172,0,390.8216,1.766615,2,video,1,1,0
VRTag_026,43,1,48,1389.111,773.878,1363,203,0,571.4748,2.433224,2,video,4,1,3
VRTag_026,44,1,47,888.6727,458.4722,539,179,0,447.6334,2.016629,2,video,1,1,0
VRTag_026,45,1,6,1058.883,757.157,1168,635,1,163.7949,4.066528,2,video,4,1,3
VRTag_026,46,1,17,1242.384,701.6072,1221,881,1,180.6628,1.766545,2,video,1,4,-3
VRTag_026,47,1,14,704.9794,894.6492,959,885,0,254.2038,3.499922,2,video,2,2,0
VRTag_026,48,1,13,1046.258,700.209,745,629,0,309.5595,1.249932,2,video,NaN,NaN,NaN
VRTag_027,25,1,11,1265.11,366.5306,656,721,0,704.7434,5.083125,2,video,1,1,0
VRTag_027,26,1,14,880.3635,490.6129,1106,467,0,226.8687,1.783225,2,video,1,1,0
VRTag_027,27,1,48,830.402,390.1319,1137,690,0,428.8627,2.366528,2,video,1,1,0
VRTag_027,28,1,18,698.6813,792.3432,1157,908,0,472.6865,6.049771,2,video,2,2,0
VRTag_027,29,1,16,1039.116,225.6979,659,488,0,461.8341,2.433279,2,video,1,1,0
VRTag_027,30,1,46,1333.644,738.1654,1283,450,0,292.5818,2.283265,2,video,1,1,0
VRTag_027,31,1,20,457.8512,379.0518,1276,273,0,824.9936,2.066589,2,video,3,3,0
VRTag_027,32,1,6,810.5431,833.6764,1296,380,0,664.4477,2.549929,2,video,4,1,3
VRTag_027,33,1,34,1211.915,256.8804,760,370,0,465.8572,4.366583,2,video,1,1,0
VRTag_027,34,1,1,659.0057,425.319,744,911,0,493.0619,3.933273,2,video,3,2,1
VRTag_027,35,1,31,530.0806,767.7241,1419,919,0,901.6996,2.349918,2,video,2,2,0
VRTag_027,36,1,47,1238.391,388.4583,1152,711,0,333.911,2.999921,2,video,1,1,0
VRTag_027,37,1,12,883.6678,139.1193,650,384,0,338.4777,2.416569,2,video,1,1,0
VRTag_027,38,1,40,959.5862,109.6888,1160,694,0,617.7259,1.833271,2,video,1,1,0
VRTag_027,39,1,17,487.4168,287.7273,1276,276,0,788.6704,2.599923,2,video,3,3,0
VRTag_027,40,1,22,953.8958,461.3417,1288,382,0,343.3958,2.833261,2,video,1,1,0
VRTag_027,41,1,15,725.5674,182.9202,627,379,0,219.4603,3.449922,2,video,3,3,0
VRTag_027,42,1,13,1159.919,899.6454,1160,670,0,229.6454,3.799925,2,video,4,1,3
VRTag_027,43,1,32,512.0397,962.1646,772,683,0,381.4607,5.999909,2,video,2,3,-1
VRTag_027,44,1,45,1186.127,943.9596,1159,716,0,229.568,2.399901,2,video,4,1,3
VRTag_027,45,1,41,453.7071,798.8343,1146,706,0,698.4896,1.933263,2,video,2,3,-1
VRTag_027,46,1,26,588.4197,329.5741,1150,374,0,563.3348,4.566576,2,video,3,3,0
VRTag_027,47,1,33,850.81,119.6894,1165,168,0,317.8825,2.849926,2,video,1,1,0
VRTag_027,48,1,21,915.3545,332.1082,1135,373,0,223.4195,2.566539,2,video,NaN,NaN,NaN
VRTag_028,25,1,2,645.6458,246.1734,582,545,0,305.5292,2.892144,2,video,3,3,0
VRTag_028,26,1,43,588.2525,222.8022,562,231,1,27.50264,2.766596,2,video,3,3,0
VRTag_028,27,1,29,505.6244,873.871,840,204,0,748.6883,2.666453,2,video,2,3,-1
VRTag_028,28,1,8,944.604,141.2134,959,639,0,497.9947,3.083262,2,video,1,1,0
VRTag_028,29,1,18,516.2974,368.5679,587,872,0,508.3726,2.33334,2,video,3,2,1
VRTag_028,30,1,27,1321.858,501.7124,1118,368,0,243.7975,2.566583,2,video,1,1,0
VRTag_028,31,1,30,1038.956,380.0066,730,922,0,623.8676,2.616604,2,video,1,4,-3
VRTag_028,32,1,23,1074.58,551.2344,773,214,0,452.413,2.433243,2,video,1,1,0
VRTag_028,33,1,10,557.3579,492.8291,961,161,0,522.5299,2.966626,2,video,3,3,0
VRTag_028,34,1,4,623.9002,736.4648,1419,529,0,821.7209,3.633301,2,video,3,3,0
VRTag_028,35,1,38,642.3496,926.6401,1196,623,0,631.4476,3.999978,2,video,2,3,-1
VRTag_028,36,1,36,653.8289,239.3065,1240,139,0,594.6915,2.466668,2,video,3,3,0
VRTag_028,37,1,44,952.2087,610.7706,975,136,0,475.3174,2.716601,2,video,1,1,0
VRTag_028,38,1,24,606.2623,372.4787,671,181,0,202.1264,2.933301,2,video,3,3,0
VRTag_028,39,1,7,1159.857,870.3437,927,157,0,750.3877,2.083266,2,video,4,1,3
VRTag_028,40,1,39,471.5761,762.3989,1085,915,0,632.1202,3.783252,2,video,2,2,0
VRTag_028,41,1,3,1454.027,339.2744,1376,627,0,298.1178,2.916644,2,video,1,1,0
VRTag_028,42,1,25,993.1218,229.3008,1344,865,0,726.1054,2.76656,2,video,1,4,-3
VRTag_028,43,1,5,1436.109,358.9323,770,217,0,681.0622,4.433241,2,video,1,1,0
VRTag_028,44,1,28,728.6069,490.6685,710,661,1,171.3448,4.349929,2,video,3,3,0
VRTag_028,45,1,9,668.87,114.2719,1389,362,0,761.5487,2.716553,2,video,3,3,0
VRTag_028,46,1,37,600.3634,538.8373,1105,241,0,585.9737,2.199921,2,video,3,3,0
VRTag_028,47,1,35,724.717,770.9,1198,759,0,473.4326,2.699875,2,video,2,2,0
VRTag_028,48,1,42,974.6799,493.5777,1353,993,0,626.5371,2.866591,2,video,NaN,NaN,NaN
VRTag_029,25,1,39,1149.277,198.6657,529,787,0,854.9158,2.324624,2,video,1,4,-3
VRTag_029,26,1,27,1398.639,449.2341,560,155,0,888.7573,5.983272,2,video,1,1,0
VRTag_029,27,1,5,500.0361,582.3003,514,473,1,110.1887,8.266403,2,video,3,3,0
VRTag_029,28,1,23,939.3336,835.3659,1174,669,0,287.656,2.449943,2,video,4,1,3
VRTag_029,29,1,9,1405.609,191.3669,495,622,0,1007.3,2.499902,2,video,1,1,0
VRTag_029,30,1,24,1294.342,461.9313,1118,215,0,303.433,2.849885,2,video,1,1,0
VRTag_029,31,1,35,606.7889,442.9604,581,921,0,478.7347,2.933215,2,video,3,2,1
VRTag_029,32,1,28,818.593,652.505,1170,899,0,429.2396,2.649875,2,video,1,4,-3
VRTag_029,33,1,38,512.2625,326.1974,1025,705,0,637.4882,5.516547,2,video,3,3,0
VRTag_029,34,1,18,695.4242,662.2871,737,158,0,505.9981,3.949914,2,video,3,3,0
VRTag_029,35,1,42,1106.147,429.8252,736,912,0,607.866,2.233292,2,video,1,4,-3
VRTag_029,36,1,36,590.9685,272.6432,780,909,0,663.8395,2.166606,2,video,3,2,1
VRTag_029,37,1,25,1211.925,136.0315,1057,901,0,780.4989,2.666546,2,video,1,4,-3
VRTag_029,38,1,8,1157.099,269.9163,1405,707,0,502.4906,3.533248,2,video,1,1,0
VRTag_029,39,1,44,594.1943,461.0338,1053,546,0,466.6068,2.16657,2,video,3,3,0
VRTag_029,40,1,30,449.5037,544.3041,1418,803,0,1002.451,5.333184,2,video,3,2,1
VRTag_029,41,1,4,459.3309,486.0933,1270,806,0,871.5071,2.266557,2,video,3,2,1
VRTag_029,42,1,3,697.3995,864.5818,517,467,0,436.5951,3.049918,2,video,2,3,-1
VRTag_029,43,1,7,1302.789,594.1561,1400,575,1,99.08039,5.599908,2,video,1,1,0
VRTag_029,44,1,2,1407.965,746.2939,890,706,0,519.5303,5.633236,2,video,1,1,0
VRTag_029,45,1,37,1061.783,116.7752,1158,818,0,707.7951,4.833217,2,video,1,4,-3
VRTag_029,46,1,43,1275.726,123.9231,893,600,0,610.8423,4.166563,2,video,1,1,0
VRTag_029,47,1,10,1280.106,173.9891,777,590,0,652.825,3.016515,2,video,1,1,0
VRTag_029,48,1,29,1377.967,722.7537,917,147,0,737.5521,2.249906,2,video,NaN,NaN,NaN
VRTag_031,25,1,47,552.9771,680.5426,598,236,0,446.8167,4.424163,2,video,3,3,0
VRTag_031,26,1,11,1179.408,756.3973,380,574,0,819.9525,2.64995,2,video,4,1,3
VRTag_031,27,1,13,1421.063,718.864,733,967,0,731.4387,5.116439,2,video,1,4,-3
VRTag_031,28,1,46,959.1477,687.9556,1018,502,1,195.0463,2.916564,2,video,1,1,0
VRTag_031,29,1,32,1194.171,118.8257,696,129,0,498.275,3.249951,2,video,1,1,0
VRTag_031,30,1,40,1405.031,374.2152,659,140,0,781.9325,1.999881,2,video,1,1,0
VRTag_031,31,1,41,531.4377,811.7892,1283,164,0,992.208,3.849898,2,video,2,3,-1
VRTag_031,32,1,48,484.7133,461.149,1227,828,0,827.9911,3.783283,2,video,3,2,1
VRTag_031,33,1,45,1091.64,582.45,373,417,0,737.4395,13.78324,2,video,1,1,0
VRTag_031,34,1,21,512.4932,530.0053,1309,173,0,872.855,2.016583,2,video,3,3,0
VRTag_031,35,1,17,1254.422,166.5262,1335,970,0,807.5041,2.749903,2,video,1,4,-3
VRTag_031,36,1,18,1116.903,926.4477,675,327,0,744.7251,2.54991,2,video,4,1,3
VRTag_031,37,1,15,889.4722,492.7391,1563,738,0,716.7932,5.866576,2,video,1,1,0
VRTag_031,38,1,20,1209.509,931.9777,1048,638,0,335.4221,1.699951,2,video,4,1,3
VRTag_031,39,1,12,1113.665,751.677,1193,880,1,150.8671,2.699947,2,video,4,4,0
VRTag_031,40,1,33,1082.497,861.4959,1188,807,1,118.7466,5.183224,2,video,4,4,0
VRTag_031,41,1,22,834.4389,891.6766,420,293,0,728.13,4.199882,2,video,4,1,3
VRTag_031,42,1,14,531.4587,111.4429,1127,723,0,853.6226,17.7165,2,video,3,3,0
VRTag_031,43,1,34,709.8672,370.0923,1380,991,0,913.5669,2.966591,2,video,3,2,1
VRTag_031,44,1,16,1356.644,443.4588,1183,997,0,580.1381,1.833261,2,video,1,4,-3
VRTag_031,45,1,31,484.4999,528.0667,611,967,0,456.7983,2.133268,2,video,3,2,1
VRTag_031,46,1,26,659.2369,631.8755,496,930,0,339.889,8.599875,2,video,3,2,1
VRTag_031,47,1,1,562.941,811.4592,517,557,0,258.5731,4.366571,2,video,2,3,-1
VRTag_031,48,1,6,834.1356,823.7705,932,488,0,349.7417,2.099925,2,video,NaN,NaN,NaN
VRTag_032,25,1,34,586.7927,215.4855,702,788,0,583.991,4.024287,2,video,3,2,1
VRTag_032,26,1,1,688.7086,183.0644,476,852,0,701.94,3.6333,2,video,3,2,1
VRTag_032,27,1,14,614.0728,466.964,511,156,0,327.6013,5.216528,2,video,3,3,0
VRTag_032,28,1,16,482.3014,678.8758,529,704,1,53.02817,5.59992,2,video,3,3,0
VRTag_032,29,1,45,1056.978,279.7707,893,696,0,447.365,5.266575,2,video,1,1,0
VRTag_032,30,1,48,533.4084,555.1144,545,597,1,43.45993,4.166644,2,video,3,3,0
VRTag_032,31,1,33,634.5082,271.2946,1143,706,0,668.9789,5.466554,2,video,3,3,0
VRTag_032,32,1,21,484.966,670.0491,651,165,0,531.6407,5.366617,2,video,3,3,0
VRTag_032,33,1,17,885.7981,519.2689,970,395,1,150.109,4.033288,2,video,1,1,0
VRTag_032,34,1,40,1464.412,963.0024,1264,705,0,326.696,4.616628,2,video,4,1,3
VRTag_032,35,1,11,1439.489,793.2108,1410,196,0,597.9383,3.749955,2,video,4,1,3
VRTag_032,36,1,41,1354.734,688.5286,1280,920,0,243.2368,3.033246,2,video,1,4,-3
VRTag_032,37,1,32,1454.532,811.5869,883,170,0,859.2339,5.549895,2,video,4,1,3
VRTag_032,38,1,47,1016.076,930.8349,1128,629,0,321.9181,6.03326,2,video,4,1,3
VRTag_032,39,1,13,531.5908,345.8586,379,689,0,375.5396,3.333295,2,video,3,3,0
VRTag_032,40,1,26,475.9952,961.9355,887,167,0,894.9008,3.016609,2,video,2,3,-1
VRTag_032,41,1,15,822.6676,527.6925,516,984,0,549.7831,5.066502,2,video,1,4,-3
VRTag_032,42,1,20,616.3111,702.7982,1166,380,0,637.461,9.21651,2,video,3,3,0
VRTag_032,43,1,6,638.9105,892.5073,527,63,0,837.0223,5.966594,2,video,2,3,-1
VRTag_032,44,1,12,560.2893,745.2833,1405,172,0,1020.877,7.316565,2,video,3,3,0
VRTag_032,45,1,31,953.3967,727.1145,1025,914,0,200.1331,6.833215,2,video,1,4,-3
VRTag_032,46,1,46,957.1497,840.7737,635,700,0,351.5646,4.46657,2,video,4,1,3
VRTag_032,47,1,18,1443.319,369.0183,980,671,0,553.0439,3.983187,2,video,1,1,0
VRTag_032,48,1,22,991.5749,198.9124,625,150,0,369.8237,4.066614,2,video,NaN,NaN,NaN
VRTag_042,25,1,18,584.5834,377.8527,579,376,1,5.88276,4.516497,2,video,3,3,0
VRTag_042,26,1,43,1291.766,793.3514,667,532,0,677.2277,3.583234,2,video,4,1,3
VRTag_042,27,1,4,1026.347,604.6074,521,882,0,576.4743,2.766474,2,video,1,4,-3
VRTag_042,28,1,3,1413.984,792.2819,694,655,0,732.9552,7.016525,2,video,4,1,3
VRTag_042,29,1,5,1263.183,661.0196,1429,616,1,171.8201,6.149889,2,video,1,1,0
VRTag_042,30,1,28,1236.698,733.949,1288,668,1,83.55332,3.666585,2,video,1,1,0
VRTag_042,31,1,42,897.5558,717.7595,1173,217,0,571.5152,2.583258,2,video,1,1,0
VRTag_042,32,1,35,1306.851,442.7257,587,363,0,724.2523,4.066589,2,video,1,1,0
VRTag_042,33,1,29,1331.343,901.0736,653,298,0,907.6603,7.883237,2,video,4,1,3
VRTag_042,34,1,24,503.442,951.3935,890,221,0,826.3787,3.183249,2,video,2,3,-1
VRTag_042,35,1,2,1163.501,214.8073,1347,692,0,511.258,2.699903,2,video,1,1,0
VRTag_042,36,1,38,521.7826,143.1597,1302,781,0,1007.76,3.949922,2,video,3,2,1
VRTag_042,37,1,10,562.1123,935.1802,1423,918,0,861.0591,2.949926,2,video,2,2,0
VRTag_042,38,1,7,824.4412,760.3565,579,830,0,255.1305,7.733223,2,video,4,4,0
VRTag_042,39,1,23,529.339,143.2798,651,147,1,121.7179,4.316595,2,video,3,3,0
VRTag_042,40,1,44,818.9443,136.7741,1423,186,0,606.0581,2.533297,2,video,1,1,0
VRTag_042,41,1,8,1273.089,489.0765,1213,674,1,194.4412,6.099905,2,video,1,1,0
VRTag_042,42,1,37,1359.896,889.4769,1285,530,0,367.1962,3.816602,2,video,4,1,3
VRTag_042,43,1,30,758.3644,786.4893,778,250,0,536.8485,5.44983,2,video,4,1,3
VRTag_042,44,1,27,1080.353,412.6007,653,677,0,502.5315,4.099902,2,video,1,1,0
VRTag_042,45,1,36,579.8694,538.2967,1171,353,0,619.4919,4.033245,2,video,3,3,0
VRTag_042,46,1,9,507.3888,848.1322,522,821,1,30.81632,7.733211,2,video,2,2,0
VRTag_042,47,1,39,890.0183,142.0971,619,389,0,366.6224,2.149951,2,video,1,1,0
VRTag_042,48,1,25,669.231,875.1929,1291,703,0,645.1721,6.299944,2,video,NaN,NaN,NaN
VRTag_002,1,1,46,485.915,124.1387,681,557,0,474.7916,6.624735,1,vr,3,3,0
VRTag_002,2,1,18,1129.569,968.9167,952,119,0,868.2678,3.983236,1,vr,4,1,3
VRTag_002,3,1,13,614.1576,150.8841,828,434,0,354.8002,4.449748,1,vr,3,3,0
VRTag_002,4,1,45,985.7661,955.6342,818,639,0,358.3332,6.499925,1,vr,4,1,3
VRTag_002,5,1,26,683.2664,243.4723,1231,327,0,554.0659,6.399928,1,vr,3,3,0
VRTag_002,6,1,15,1182.832,720.1498,705,312,0,628.4181,2.86662,1,vr,1,1,0
VRTag_002,7,1,17,472.2723,832.9962,1051,450,0,693.9826,6.683254,1,vr,2,3,-1
VRTag_002,8,1,47,924.6481,177.2901,684,853,0,717.2833,5.366566,1,vr,1,4,-3
VRTag_002,9,1,48,806.9364,598.3287,465,201,0,524.2047,3.316627,1,vr,1,1,0
VRTag_002,10,1,16,796.952,204.7375,795,746,0,541.266,9.783247,1,vr,1,1,0
VRTag_002,11,1,40,950.8629,958.1472,1331,333,0,731.651,4.733258,1,vr,4,1,3
VRTag_002,12,1,34,1432.213,295.2111,1118,436,0,344.3132,3.016665,1,vr,1,1,0
VRTag_002,13,1,32,1207.674,139.6408,707,774,0,808.1373,5.099932,1,vr,1,4,-3
VRTag_002,14,1,22,1262.832,603.5463,949,759,0,350.2236,5.06659,1,vr,1,4,-3
VRTag_002,15,1,20,777.3726,707.1799,970,978,0,332.3385,3.783317,1,vr,1,4,-3
VRTag_002,16,1,33,710.6818,423.7559,855,434,1,144.6813,6.98325,1,vr,3,3,0
VRTag_002,17,1,11,877.0296,392.1461,810,628,0,245.1939,6.116627,1,vr,1,1,0
VRTag_002,18,1,21,1347.422,633.5569,1508,208,0,454.8449,3.149912,1,vr,1,1,0
VRTag_002,19,1,6,530.7239,395.2014,1210,881,0,835.1145,2.449983,1,vr,3,2,1
VRTag_002,20,1,41,756.0974,614.1535,848,646,1,97.264,5.699946,1,vr,1,1,0
VRTag_002,21,1,31,1072.857,660.8289,640,472,0,472.2517,4.283285,1,vr,1,1,0
VRTag_002,22,1,12,757.0504,515.7973,1353,657,0,612.4493,3.483238,1,vr,1,1,0
VRTag_002,23,1,1,498.861,257.8482,818,756,0,591.6121,2.316586,1,vr,3,2,1
VRTag_002,24,1,14,1253.095,925.3016,1196,654,0,277.2442,5.866574,1,vr,4,1,3
VRTag_003,1,1,20,1179.799,649.7983,978,74,0,610.1364,2.20753,1,vr,1,1,0
VRTag_003,2,1,41,584.4082,698.7332,1356,285,0,875.5165,1.783254,1,vr,3,3,0
VRTag_003,3,1,22,662.7762,910.7659,1086,769,0,446.3361,2.733172,1,vr,2,2,0
VRTag_003,4,1,16,1050.77,505.0034,576,877,0,603.1483,2.66651,1,vr,1,4,-3
VRTag_003,5,1,21,535.7251,190.1089,824,587,0,490.5354,1.683304,1,vr,3,3,0
VRTag_003,6,1,33,1017.457,443.1572,841,467,1,178.06,1.533273,1,vr,1,1,0
VRTag_003,7,1,12,883.7024,144.3,1370,369,0,535.7008,3.383204,1,vr,1,1,0
VRTag_003,8,1,15,644.3386,326.3045,1232,762,0,731.5575,1.899897,1,vr,3,2,1
VRTag_003,9,1,14,522.7211,806.7006,616,856,1,105.5054,3.716616,1,vr,2,2,0
VRTag_003,10,1,11,490.5938,605.1351,627,967,0,386.7206,2.299928,1,vr,3,2,1
VRTag_003,11,1,13,1301.188,346.0394,1101,414,0,211.409,3.099905,1,vr,1,1,0
VRTag_003,12,1,32,1037.592,854.7784,931,562,0,311.5784,3.166493,1,vr,4,1,3
VRTag_003,13,1,40,520.6693,859.4356,1421,857,0,900.334,2.233237,1,vr,2,2,0
VRTag_003,14,1,6,867.5832,370.8642,744,384,1,124.2794,4.166648,1,vr,1,1,0
VRTag_003,15,1,47,1328.429,781.7761,568,675,0,767.8886,1.88326,1,vr,4,1,3
VRTag_003,16,1,46,823.3728,800.2204,1072,578,0,333.4628,1.749935,1,vr,4,1,3
VRTag_003,17,1,18,1457.585,913.3595,670,783,0,798.3007,1.999966,1,vr,4,4,0
VRTag_003,18,1,31,1137.731,526.0976,818,543,0,320.1774,1.566606,1,vr,1,1,0
VRTag_003,19,1,34,1113.548,697.4092,1121,553,1,144.6014,2.383235,1,vr,1,1,0
VRTag_003,20,1,48,917.9992,122.3871,1325,783,0,775.9246,3.699892,1,vr,1,4,-3
VRTag_003,21,1,26,1329.432,208.4837,792,665,0,705.1529,3.383162,1,vr,1,1,0
VRTag_003,22,1,1,1309.764,401.7232,1280,405,1,29.94388,6.016587,1,vr,1,1,0
VRTag_003,23,1,17,908.1397,714.4867,908,576,1,138.4868,2.033225,1,vr,1,1,0
VRTag_003,24,1,45,662.9947,391.746,1123,483,0,468.9693,2.266592,1,vr,3,3,0
VRTag_005,1,1,24,795.0742,227.1232,878,336,1,136.8607,3.233237,1,vr,1,1,0
VRTag_005,2,1,44,894.4053,153.5085,647,157,0,247.43,1.933262,1,vr,1,1,0
VRTag_005,3,1,37,1364.465,615.5713,706,340,0,713.804,1.96657,1,vr,1,1,0
VRTag_005,4,1,7,664.1867,323.5267,1040,717,0,544.1111,3.799879,1,vr,3,3,0
VRTag_005,5,1,8,1230.152,911.5628,1390,911,1,159.8485,2.033274,1,vr,4,4,0
VRTag_005,6,1,36,1046.241,878.0591,1146,783,1,137.797,3.016542,1,vr,4,4,0
VRTag_005,7,1,25,906.5691,326.1887,1029,718,0,410.4941,1.916585,1,vr,1,1,0
VRTag_005,8,1,35,594.5308,448.5057,1049,688,0,513.7117,2.466604,1,vr,3,3,0
VRTag_005,9,1,9,491.4894,345.4384,643,444,1,180.748,2.933229,1,vr,3,3,0
VRTag_005,10,1,3,632.7147,407.2358,775,194,0,256.3486,2.449958,1,vr,3,3,0
VRTag_005,11,1,30,1412.307,830.0535,1416,450,0,380.0714,4.466519,1,vr,4,1,3
VRTag_005,12,1,18,1185.109,785.2578,1331,562,0,266.6988,2.983308,1,vr,4,1,3
VRTag_005,13,1,27,1355.253,578.9939,914,252,0,549.2076,2.166609,1,vr,1,1,0
VRTag_005,14,1,29,703.6147,567.2982,854,782,0,262.1309,3.033318,1,vr,3,2,1
VRTag_005,15,1,28,1037.379,735.9549,547,628,0,502.1213,1.766604,1,vr,1,1,0
VRTag_005,16,1,23,1039.976,604.3633,1185,810,0,251.6314,3.499919,1,vr,1,4,-3
VRTag_005,17,1,43,695.0182,669.9137,1282,447,0,627.8839,1.866573,1,vr,3,3,0
VRTag_005,18,1,2,1175.664,424.8574,824,804,0,517.1233,3.166579,1,vr,1,4,-3
VRTag_005,19,1,38,614.9963,628.6899,1035,697,0,425.5225,2.516623,1,vr,3,3,0
VRTag_005,20,1,42,985.545,226.1378,1263,757,0,598.9958,2.483254,1,vr,1,4,-3
VRTag_005,21,1,4,1405.167,526.068,766,436,0,645.4818,1.849983,1,vr,1,1,0
VRTag_005,22,1,5,566.9819,951.9956,930,218,0,818.86,2.199914,1,vr,2,3,-1
VRTag_005,23,1,10,1426.222,870.3633,1024,599,0,485.2015,1.666616,1,vr,4,1,3
VRTag_005,24,1,39,871.3859,724.0296,583,362,0,462.8519,2.066547,1,vr,1,1,0
VRTag_006,1,1,12,1132.361,423.9424,1118,309,1,115.8361,6.849856,1,vr,1,1,0
VRTag_006,2,1,17,1232.463,111.2988,1127,329,0,241.9014,3.416554,1,vr,1,1,0
VRTag_006,3,1,48,890.0183,444.2124,445,291,0,470.6541,4.016639,1,vr,1,1,0
VRTag_006,4,1,40,746.938,866.6907,865,334,0,545.6171,7.899973,1,vr,2,3,-1
VRTag_006,5,1,22,1348.995,568.726,1423,439,1,149.3506,6.083289,1,vr,1,1,0
VRTag_006,6,1,31,1125.18,230.0921,578,901,0,865.7499,3.03327,1,vr,1,4,-3
VRTag_006,7,1,32,883.3632,156.0186,534,438,0,448.9635,10.76656,1,vr,1,1,0
VRTag_006,8,1,47,1111.573,345.5776,1212,676,0,345.347,6.683296,1,vr,1,1,0
VRTag_006,9,1,15,1362.339,788.6614,718,340,0,785.1559,14.18193,1,vr,4,1,3
VRTag_006,10,1,46,909.053,482.8801,828,870,0,395.5141,7.449892,1,vr,1,4,-3
VRTag_006,11,1,13,1310.853,850.3411,879,236,0,750.9407,3.599953,1,vr,4,1,3
VRTag_006,12,1,33,862.071,245.3619,637,882,0,675.2518,5.18331,1,vr,1,4,-3
VRTag_006,13,1,1,1455.797,622.2677,1081,791,0,411.0269,7.866544,1,vr,1,4,-3
VRTag_006,14,1,6,951.9457,686.5605,1127,776,1,196.5793,19.09988,1,vr,1,4,-3
VRTag_006,15,1,11,781.3953,480.1348,912,179,0,328.2374,2.683243,1,vr,1,1,0
VRTag_006,16,1,20,953.5014,782.6821,1365,279,0,650.405,3.766569,1,vr,4,1,3
VRTag_006,17,1,45,662.2623,942.4657,1352,453,0,845.7628,3.266551,1,vr,2,3,-1
VRTag_006,18,1,14,547.4969,858.1558,1064,820,0,517.9105,3.999929,1,vr,2,2,0
VRTag_006,19,1,26,880.5864,131.7903,1465,777,0,870.5371,3.749955,1,vr,1,4,-3
VRTag_006,20,1,16,765.7742,935.882,964,628,0,366.1759,2.799882,1,vr,4,1,3
VRTag_006,21,1,34,1095.071,921.5809,591,603,0,596.3065,5.066582,1,vr,4,1,3
VRTag_006,22,1,41,1429.632,523.177,1055,167,0,516.9247,3.783289,1,vr,1,1,0
VRTag_006,23,1,18,1018.916,409.5658,738,758,0,447.5714,7.116565,1,vr,1,4,-3
VRTag_006,24,1,21,883.4866,785.7841,883,273,0,512.7844,5.283293,1,vr,4,1,3
VRTag_010,1,1,37,1085.116,919.0566,1235,954,1,153.9035,9.083229,1,vr,4,4,0
VRTag_010,2,1,7,1359.626,543.6223,969,646,0,403.8195,5.349949,1,vr,1,1,0
VRTag_010,3,1,29,851.1473,154.0694,1231,780,0,732.1729,2.033187,1,vr,1,4,-3
VRTag_010,4,1,39,753.1076,253.5286,547,318,0,215.9558,4.716517,1,vr,1,1,0
VRTag_010,5,1,28,742.8488,494.1732,1192,829,0,560.2194,6.783161,1,vr,3,2,1
VRTag_010,6,1,44,1224.921,210.378,597,973,0,987.8652,3.883267,1,vr,1,4,-3
VRTag_010,7,1,25,1357.726,480.4333,708,877,0,761.189,2.016532,1,vr,1,4,-3
VRTag_010,8,1,3,1169.324,764.2192,564,435,0,689.059,2.616615,1,vr,4,1,3
VRTag_010,9,1,9,802.3626,557.3484,963,662,1,191.7194,3.149989,1,vr,1,1,0
VRTag_010,10,1,36,950.4891,406.0481,1319,209,0,417.8855,5.283386,1,vr,1,1,0
VRTag_010,11,1,43,997.1138,288.913,550,357,0,452.2683,7.283303,1,vr,1,1,0
VRTag_010,12,1,24,1406.021,272.8632,1150,201,0,265.9156,1.866564,1,vr,1,1,0
VRTag_010,13,1,27,938.7189,691.5026,1176,943,0,345.7647,3.583194,1,vr,1,4,-3
VRTag_010,14,1,5,534.4543,612.4382,682,195,0,442.7464,1.799883,1,vr,3,3,0
VRTag_010,15,1,42,1415.579,764.3331,1220,946,0,266.9343,1.899964,1,vr,4,4,0
VRTag_010,16,1,2,853.1124,156.4804,557,626,0,555.0957,3.083283,1,vr,1,1,0
VRTag_010,17,1,8,963.5718,249.038,591,384,0,396.2631,2.333311,1,vr,1,1,0
VRTag_010,18,1,18,488.7951,239.756,1172,721,0,835.6822,2.049936,1,vr,3,3,0
VRTag_010,19,1,30,1011.738,593.8469,1090,440,1,172.6088,5.199898,1,vr,1,1,0
VRTag_010,20,1,23,499.9539,260.9044,581,930,0,673.9861,1.999965,1,vr,3,2,1
VRTag_010,21,1,35,503.2042,957.0122,762,916,0,262.0253,2.066629,1,vr,2,2,0
VRTag_010,22,1,4,1177.287,662.2546,1362,331,0,379.2737,1.999963,1,vr,1,1,0
VRTag_010,23,1,38,1186.644,848.5198,552,724,0,646.7447,4.466628,1,vr,4,1,3
VRTag_010,24,1,10,1348.442,561.4683,824,716,0,546.7349,2.14984,1,vr,1,1,0
VRTag_012,1,1,14,456.6028,217.6809,531,204,1,75.64464,3.823012,1,vr,3,3,0
VRTag_012,2,1,12,1182.589,812.9527,1300,383,0,445.6958,3.249985,1,vr,4,1,3
VRTag_012,3,1,18,786.4226,717.8462,1088,300,0,515.31,5.399827,1,vr,1,1,0
VRTag_012,4,1,22,595.2963,465.5212,1277,340,0,693.1634,11.69989,1,vr,3,3,0
VRTag_012,5,1,48,1208.018,511.5832,770,722,0,485.9372,4.216499,1,vr,1,1,0
VRTag_012,6,1,16,1461.393,813.6597,592,729,0,873.5048,4.749932,1,vr,4,1,3
VRTag_012,7,1,6,642.3594,330.1285,1349,863,0,885.0383,3.2999,1,vr,3,2,1
VRTag_012,8,1,11,665.1368,848.6554,1246,534,0,660.6134,4.73327,1,vr,2,3,-1
VRTag_012,9,1,46,714.0255,567.1247,539,411,0,234.5397,4.083243,1,vr,3,3,0
VRTag_012,10,1,34,1125.283,424.6495,565,422,0,560.2888,4.099884,1,vr,1,1,0
VRTag_012,11,1,41,676.7212,483.08,713,649,1,169.8399,6.916604,1,vr,3,3,0
VRTag_012,12,1,47,1428.769,406.11,809,659,0,669.3777,9.233214,1,vr,1,1,0
VRTag_012,13,1,40,920.7645,270.7861,557,743,0,596.0794,2.549998,1,vr,1,1,0
VRTag_012,14,1,33,1120.422,738.8706,1060,300,0,443.0104,2.216604,1,vr,1,1,0
VRTag_012,15,1,31,1371.597,472.5495,1340,254,0,220.8218,4.449923,1,vr,1,1,0
VRTag_012,16,1,17,1255.287,557.3859,726,234,0,620.2606,3.18327,1,vr,1,1,0
VRTag_012,17,1,1,740.4399,461.9946,528,352,0,239.2269,3.51658,1,vr,3,3,0
VRTag_012,18,1,32,700.828,343.9316,1153,220,0,468.8481,3.233259,1,vr,3,3,0
VRTag_012,19,1,26,519.4889,673.7332,668,360,0,347.1081,5.066592,1,vr,3,3,0
VRTag_012,20,1,21,1348.63,429.1661,1279,849,0,425.5688,3.366621,1,vr,1,4,-3
VRTag_012,21,1,20,542.1461,897.3066,1193,624,0,705.9088,7.516594,1,vr,2,3,-1
VRTag_012,22,1,45,701.673,239.1187,605,750,0,519.9474,9.833257,1,vr,3,3,0
VRTag_012,23,1,13,601.363,885.7689,719,732,1,193.6062,2.849973,1,vr,2,2,0
VRTag_012,24,1,15,851.3951,958.3812,630,295,0,699.35,5.733247,1,vr,4,3,1
VRTag_013,1,1,47,558.3506,663.8835,1386,557,0,834.5224,13.52197,1,vr,3,3,0
VRTag_013,2,1,1,1442.309,887.5684,1075,485,0,544.9559,2.383265,1,vr,4,1,3
VRTag_013,3,1,15,607.2554,307.1975,1085,603,0,561.9066,1.783166,1,vr,3,3,0
VRTag_013,4,1,14,1047.535,431.4341,554,339,0,502.1166,3.233265,1,vr,1,1,0
VRTag_013,5,1,18,493.6432,235.4446,584,781,0,552.9874,2.466553,1,vr,3,2,1
VRTag_013,6,1,40,552.081,833.8396,519,545,0,290.7278,4.666514,1,vr,2,3,-1
VRTag_013,7,1,31,857.4377,743.9397,1220,329,0,551.023,5.483218,1,vr,1,1,0
VRTag_013,8,1,22,1183.39,673.6641,1239,266,0,411.4395,3.499906,1,vr,1,1,0
VRTag_013,9,1,21,1247.864,937.7205,568,857,0,684.6396,2.299715,1,vr,4,4,0
VRTag_013,10,1,34,1298.838,247.4461,969,809,0,651.2571,4.499934,1,vr,1,4,-3
VRTag_013,11,1,6,978.3174,582.7653,1223,880,0,384.991,4.599958,1,vr,1,4,-3
VRTag_013,12,1,12,598.5652,341.8446,1252,454,0,662.9901,1.83331,1,vr,3,3,0
VRTag_013,13,1,11,1329.282,247.1314,1302,185,1,67.85722,1.916588,1,vr,1,1,0
VRTag_013,14,1,16,860.7695,888.3005,1097,419,0,525.4025,1.749922,1,vr,4,1,3
VRTag_013,15,1,13,1020.723,966.8289,1069,526,0,443.4645,1.549915,1,vr,4,1,3
VRTag_013,16,1,46,1176.496,720.2418,534,564,0,661.2209,5.216604,1,vr,1,1,0
VRTag_013,17,1,48,500.8746,122.72,1449,539,0,1035.486,2.283237,1,vr,3,3,0
VRTag_013,18,1,33,540.4243,769.1755,1136,826,0,598.2804,4.666336,1,vr,2,2,0
VRTag_013,19,1,32,1280.109,436.765,516,871,0,878.8753,4.449893,1,vr,1,4,-3
VRTag_013,20,1,17,1088.246,507.4796,1041,468,1,61.56954,7.166555,1,vr,1,1,0
VRTag_013,21,1,41,1195.666,969.901,1094,293,0,684.4932,5.033262,1,vr,4,1,3
VRTag_013,22,1,45,1011.571,129.8122,697,504,0,488.8468,3.833276,1,vr,1,1,0
VRTag_013,23,1,26,1148.37,315.5546,1069,753,0,444.5876,6.149983,1,vr,1,4,-3
VRTag_013,24,1,20,1365.461,375.4177,963,119,0,477.2057,1.833355,1,vr,1,1,0
VRTag_017,1,1,17,1266.476,686.1708,596,255,0,797.1491,4.166465,1,vr,1,1,0
VRTag_017,2,1,48,1357.915,118.0976,1111,778,0,704.5837,1.583228,1,vr,1,4,-3
VRTag_017,3,1,16,1382.223,194.6786,1316,220,1,70.89905,2.133167,1,vr,1,1,0
VRTag_017,4,1,46,1184.124,421.9576,1216,871,0,450.1724,1.78329,1,vr,1,4,-3
VRTag_017,5,1,6,765.3017,453.4151,1214,183,0,523.8841,2.133328,1,vr,1,1,0
VRTag_017,6,1,14,1073.771,734.7599,675,448,0,491.1714,1.816606,1,vr,1,1,0
VRTag_017,7,1,1,1189.753,199.5284,818,379,0,412.8083,1.949908,1,vr,1,1,0
VRTag_017,8,1,31,946.7911,348.5864,791,815,0,491.7444,1.899913,1,vr,1,4,-3
VRTag_017,9,1,41,552.2184,929.5566,960,297,0,752.6046,2.83319,1,vr,2,3,-1
VRTag_017,10,1,34,1447.402,655.3853,1171,829,0,326.4051,3.733262,1,vr,1,4,-3
VRTag_017,11,1,20,1078.264,742.5799,695,236,0,635.228,3.116564,1,vr,1,1,0
VRTag_017,12,1,15,1199.782,716.8502,509,937,0,725.0141,2.299936,1,vr,1,4,-3
VRTag_017,13,1,18,617.1938,144.0482,619,893,0,748.9539,1.799914,1,vr,3,2,1
VRTag_017,14,1,11,857.4202,584.0202,675,818,0,296.6879,2.316607,1,vr,1,4,-3
VRTag_017,15,1,32,844.1466,470.5495,749,223,0,265.2049,1.866586,1,vr,1,1,0
VRTag_017,16,1,47,780.8613,127.7233,1154,839,0,803.2104,1.833232,1,vr,1,4,-3
VRTag_017,17,1,33,705.2896,371.3405,1098,684,0,501.9735,2.066591,1,vr,3,3,0
VRTag_017,18,1,40,1283.506,252.3065,1104,811,0,586.8227,1.716602,1,vr,1,4,-3
VRTag_017,19,1,12,547.4019,807.965,799,375,0,500.7597,1.599914,1,vr,2,3,-1
VRTag_017,20,1,21,568.4571,726.4429,692,172,0,568.0403,3.866563,1,vr,3,3,0
VRTag_017,21,1,22,520.8489,836.9161,1265,148,0,1014.084,2.416598,1,vr,2,3,-1
VRTag_017,22,1,26,899.8902,433.6511,751,215,0,264.5309,1.533274,1,vr,1,1,0
VRTag_017,23,1,45,535.2491,963.6713,1162,819,0,643.2313,1.716602,1,vr,2,2,0
VRTag_017,24,1,13,783.3418,483.034,1276,748,0,559.3917,6.449926,1,vr,1,1,0
VRTag_020,1,1,13,1067.677,259.8038,728,683,0,542.6559,5.099873,1,vr,1,1,0
VRTag_020,2,1,1,943.8851,677.8946,714,668,0,230.0979,4.133303,1,vr,1,1,0
VRTag_020,3,1,47,1018.779,308.7493,1353,638,0,469.1584,3.283231,1,vr,1,1,0
VRTag_020,4,1,17,777.6222,718.5663,713,792,1,97.81892,2.299986,1,vr,1,4,-3
VRTag_020,5,1,20,670.3761,880.7819,1063,234,0,756.6243,5.766593,1,vr,2,3,-1
VRTag_020,6,1,22,514.5112,690.0095,708,952,0,325.6946,2.916553,1,vr,3,2,1
VRTag_020,7,1,14,728.5757,109.8234,1200,889,0,910.6904,4.566555,1,vr,3,2,1
VRTag_020,8,1,40,1448.42,139.8525,1077,457,0,488.4005,2.933224,1,vr,1,1,0
VRTag_020,9,1,26,603.9038,277.1616,1498,348,0,896.8981,2.399965,1,vr,3,3,0
VRTag_020,10,1,16,1381.991,934.4359,954,618,0,532.2669,2.466626,1,vr,4,1,3
VRTag_020,11,1,11,1269.692,770.1944,709,453,0,644.1954,1.949915,1,vr,4,1,3
VRTag_020,12,1,46,1470.404,446.2371,1231,460,0,239.7996,2.449931,1,vr,1,1,0
VRTag_020,13,1,21,1406.132,448.9785,1336,862,0,418.9335,6.149866,1,vr,1,4,-3
VRTag_020,14,1,15,809.6815,520.1215,706,211,0,326.0459,2.583274,1,vr,1,1,0
VRTag_020,15,1,31,1342.931,388.6118,1218,242,1,192.6207,1.933236,1,vr,1,1,0
VRTag_020,16,1,6,994.5731,609.9907,1184,743,0,231.4606,6.433205,1,vr,1,1,0
VRTag_020,17,1,45,533.7045,507.4477,693,656,0,217.8138,7.266574,1,vr,3,3,0
VRTag_020,18,1,32,471.2133,528.115,632,242,0,328.1983,3.183178,1,vr,3,3,0
VRTag_020,19,1,34,1443.58,577.1364,1185,997,0,493.1015,1.883226,1,vr,1,4,-3
VRTag_020,20,1,48,1427.15,298.3878,1077,237,0,355.4907,2.79991,1,vr,1,1,0
VRTag_020,21,1,12,775.5429,331.5083,1451,905,0,886.0785,3.466556,1,vr,1,4,-3
VRTag_020,22,1,18,1330.239,853.3916,1509,320,0,562.5496,4.033157,1,vr,4,1,3
VRTag_020,23,1,33,1289.562,920.5192,1323,769,1,155.1649,4.166589,1,vr,4,4,0
VRTag_020,24,1,41,820.7299,446.1153,1206,548,0,398.5142,2.916519,1,vr,1,1,0
VRTag_033,1,1,32,888.3612,383.6883,812,744,0,368.3144,4.999817,1,vr,1,1,0
VRTag_033,2,1,20,1323.129,531.4535,655,205,0,743.6184,1.899924,1,vr,1,1,0
VRTag_033,3,1,17,772.5081,712.5577,1337,232,0,741.3412,4.649808,1,vr,1,1,0
VRTag_033,4,1,46,945.2483,741.3089,1408,869,0,480.046,1.733302,1,vr,1,4,-3
VRTag_033,5,1,21,1301.146,926.2417,1410,222,0,712.6048,2.649988,1,vr,4,1,3
VRTag_033,6,1,31,1405.226,765.7589,1321,224,0,548.2671,2.983195,1,vr,4,1,3
VRTag_033,7,1,47,1051.722,397.9555,1179,896,0,514.0505,1.666602,1,vr,1,4,-3
VRTag_033,8,1,34,1298.846,147.2806,1098,449,0,362.4551,6.449915,1,vr,1,1,0
VRTag_033,9,1,14,1171.233,822.3169,1286,548,0,297.3571,1.533242,1,vr,4,1,3
VRTag_033,10,1,22,1057.955,890.4474,914,738,0,209.6741,3.833249,1,vr,4,1,3
VRTag_033,11,1,16,995.6068,419.1002,632,195,0,427.1192,2.299954,1,vr,1,1,0
VRTag_033,12,1,41,1194.445,394.7636,1171,301,1,96.65032,2.416542,1,vr,1,1,0
VRTag_033,13,1,26,1452.742,626.1068,964,734,0,500.5091,1.93322,1,vr,1,1,0
VRTag_033,14,1,33,1025.552,466.7889,834,533,0,202.6722,1.766584,1,vr,1,1,0
VRTag_033,15,1,40,831.416,590.4772,1321,193,0,630.6193,1.899961,1,vr,1,1,0
VRTag_033,16,1,12,1085.414,495.6871,657,544,0,431.1295,2.966539,1,vr,1,1,0
VRTag_033,17,1,1,597.3581,146.028,765,722,0,599.8729,1.699964,1,vr,3,3,0
VRTag_033,18,1,18,1221.431,371.7478,813,305,0,413.849,1.749888,1,vr,1,1,0
VRTag_033,19,1,6,792.4275,794.8314,1303,306,0,706.8525,3.216634,1,vr,4,1,3
VRTag_033,20,1,48,679.0614,258.0875,1400,267,0,720.9937,2.116608,1,vr,3,3,0
VRTag_033,21,1,15,1318.26,194.4709,1315,276,1,81.59421,1.816601,1,vr,1,1,0
VRTag_033,22,1,45,827.1116,842.9216,1213,355,0,622.075,5.216616,1,vr,4,1,3
VRTag_033,23,1,11,1268.663,563.4054,1146,810,0,275.418,1.666555,1,vr,1,4,-3
VRTag_033,24,1,13,1200.716,923.0588,1199,712,0,211.0658,3.9166,1,vr,4,1,3
VRTag_034,1,1,10,1439.124,399.2439,1447,436,1,37.5904,2.066505,1,vr,1,1,0
VRTag_034,2,1,39,780.7247,692.3078,1085,339,0,466.2723,2.366657,1,vr,1,1,0
VRTag_034,3,1,38,679.823,625.7188,1447,782,0,782.9331,2.216425,1,vr,3,2,1
VRTag_034,4,1,29,1018.03,247.7935,1460,619,0,577.176,3.899926,1,vr,1,1,0
VRTag_034,5,1,44,1345.691,886.7965,1043,637,0,392.4543,1.766647,1,vr,4,1,3
VRTag_034,6,1,8,749.0657,842.1645,623,710,1,182.6473,1.566541,1,vr,2,3,-1
VRTag_034,7,1,42,532.3541,569.5654,708,463,0,205.4451,1.883256,1,vr,3,3,0
VRTag_034,8,1,5,879.8984,798.9133,1417,335,0,709.7138,2.099971,1,vr,4,1,3
VRTag_034,9,1,35,664.2934,364.1057,1208,545,0,573.0092,2.033284,1,vr,3,3,0
VRTag_034,10,1,23,1021.288,595.9722,1366,193,0,530.2951,1.766558,1,vr,1,1,0
VRTag_034,11,1,3,1114.871,240.4427,1049,225,1,67.65705,2.216598,1,vr,1,1,0
VRTag_034,12,1,30,1403.73,432.6581,1406,163,0,269.6676,2.933234,1,vr,1,1,0
VRTag_034,13,1,4,1383.742,852.7421,1167,192,0,695.3828,1.699959,1,vr,4,1,3
VRTag_034,14,1,28,688.5521,863.2556,1336,870,0,647.483,1.816627,1,vr,2,2,0
VRTag_034,15,1,37,1060.691,954.965,1215,306,0,667.0583,2.016585,1,vr,4,1,3
VRTag_034,16,1,25,1365.55,345.1492,1329,849,0,505.1747,2.149885,1,vr,1,4,-3
VRTag_034,17,1,27,1449.699,633.2228,790,658,0,660.1636,1.883186,1,vr,1,1,0
VRTag_034,18,1,43,1440.173,283.4484,537,453,0,918.9502,1.916606,1,vr,1,1,0
VRTag_034,19,1,7,938.5924,264.7519,1020,606,0,350.824,1.599937,1,vr,1,1,0
VRTag_034,20,1,36,744.3298,126.87,1274,848,0,894.7508,2.199925,1,vr,3,2,1
VRTag_034,21,1,9,915.9691,414.914,894,653,0,239.0975,1.799956,1,vr,1,1,0
VRTag_034,22,1,18,1225.378,636.9575,603,141,0,795.819,1.866616,1,vr,1,1,0
VRTag_034,23,1,24,544.4693,596.9939,1535,464,0,999.419,2.583244,1,vr,3,3,0
VRTag_034,24,1,2,775.4702,299.6103,1413,426,0,649.9373,1.849921,1,vr,1,1,0
VRTag_035,1,1,13,728.6172,690.8458,869,806,1,181.5704,4.091104,1,vr,3,2,1
VRTag_035,2,1,33,1349.077,822.6011,639,137,0,987.0449,1.766602,1,vr,4,1,3
VRTag_035,3,1,11,943.619,862.7265,1153,770,0,228.9948,1.899822,1,vr,4,4,0
VRTag_035,4,1,12,1247.883,742.6107,672,709,0,576.8626,1.933271,1,vr,1,1,0
VRTag_035,5,1,46,783.9924,926.3641,1386,946,0,602.3277,1.883303,1,vr,4,4,0
VRTag_035,6,1,6,969.0092,870.3979,1275,454,0,516.7374,1.916592,1,vr,4,1,3
VRTag_035,7,1,31,828.8168,940.1272,1308,266,0,827.0816,2.28325,1,vr,4,1,3
VRTag_035,8,1,15,1147.433,473.9889,1175,718,0,245.5633,3.016692,1,vr,1,1,0
VRTag_035,9,1,34,1212.239,314.7041,1240,261,1,60.4549,3.483302,1,vr,1,1,0
VRTag_035,10,1,17,535.1324,510.3837,615,373,1,158.9123,1.749893,1,vr,3,3,0
VRTag_035,11,1,1,985.7514,549.2652,700,598,0,289.8774,1.966613,1,vr,1,1,0
VRTag_035,12,1,16,1161.732,706.9024,964,789,0,214.0979,3.383278,1,vr,1,4,-3
VRTag_035,13,1,14,1289.529,486.8657,961,244,0,408.5521,3.533306,1,vr,1,1,0
VRTag_035,14,1,22,1138.144,596.3044,731,285,0,512.5199,3.083306,1,vr,1,1,0
VRTag_035,15,1,47,978.1949,397.6989,1540,141,0,617.6725,2.233286,1,vr,1,1,0
VRTag_035,16,1,41,1236.188,306.3827,706,901,0,796.6613,2.399957,1,vr,1,4,-3
VRTag_035,17,1,20,609.3347,707.8602,973,813,0,378.5589,4.999958,1,vr,3,2,1
VRTag_035,18,1,45,1090.62,636.3144,564,361,0,594.2448,2.083265,1,vr,1,1,0
VRTag_035,19,1,18,1301.176,309.5076,1116,237,1,198.8651,2.250007,1,vr,1,1,0
VRTag_035,20,1,32,647.1029,291.9619,662,462,1,170.6894,2.016584,1,vr,3,3,0
VRTag_035,21,1,21,1157.174,655.8852,1252,393,0,279.4648,1.733321,1,vr,1,1,0
VRTag_035,22,1,48,705.195,409.7223,641,198,0,221.2404,2.233274,1,vr,3,3,0
VRTag_035,23,1,26,1024.526,146.0959,1142,250,1,156.8315,3.149996,1,vr,1,1,0
VRTag_035,24,1,40,482.2769,771.6912,1009,736,0,527.931,3.316561,1,vr,2,3,-1
VRTag_036,1,1,8,845.0962,899.5262,963,711,0,222.3588,12.80782,1,vr,4,1,3
VRTag_036,2,1,2,1093.714,850.9561,850,189,0,705.3951,1.816636,1,vr,4,1,3
VRTag_036,3,1,18,1220.17,411.6025,607,408,0,613.1808,2.88314,1,vr,1,1,0
VRTag_036,4,1,35,629.4309,431.3854,594,641,0,212.5879,2.549994,1,vr,3,3,0
VRTag_036,5,1,38,767.3017,298.5937,1337,330,0,570.5633,1.716575,1,vr,1,1,0
VRTag_036,6,1,9,1190.829,920.2166,1190,874,1,46.22403,2.166624,1,vr,4,4,0
VRTag_036,7,1,7,978.7128,525.2961,961,234,0,291.8341,2.283267,1,vr,1,1,0
VRTag_036,8,1,28,740.4217,585.9834,604,754,0,216.4265,3.183295,1,vr,3,2,1
VRTag_036,9,1,25,1241.136,811.6734,837,644,0,437.5391,4.516596,1,vr,4,1,3
VRTag_036,10,1,30,893.0427,212.8179,469,522,0,524.7912,4.499948,1,vr,1,1,0
VRTag_036,11,1,5,1125.554,241.7045,1338,956,0,745.219,2.71664,1,vr,1,4,-3
VRTag_036,12,1,29,763.0514,166.5679,1343,856,0,900.9201,2.68332,1,vr,1,4,-3
VRTag_036,13,1,44,583.4103,112.666,690,127,1,107.5492,2.633298,1,vr,3,3,0
VRTag_036,14,1,3,1095.241,395.4216,617,838,0,651.6061,1.983293,1,vr,1,4,-3
VRTag_036,15,1,10,1406.963,737.7372,1456,749,1,50.31402,2.533282,1,vr,1,1,0
VRTag_036,16,1,23,874.8247,468.9435,1443,970,0,757.5493,3.249959,1,vr,1,4,-3
VRTag_036,17,1,43,1185.035,533.9447,968,533,0,217.0372,3.633302,1,vr,1,1,0
VRTag_036,18,1,37,1228.457,647.6866,378,15,0,1059.985,1.699876,1,vr,1,1,0
VRTag_036,19,1,42,1374.675,960.0239,569,464,0,946.1249,1.799959,1,vr,4,1,3
VRTag_036,20,1,4,989.1743,631.1293,953,954,0,324.8909,4.133279,1,vr,1,4,-3
VRTag_036,21,1,36,1438.424,887.2573,468,545,0,1029.011,2.116648,1,vr,4,1,3
VRTag_036,22,1,24,939.1357,955.619,1212,442,0,581.6007,5.383295,1,vr,4,1,3
VRTag_036,23,1,39,593.2981,190.8649,698,80,1,152.491,2.683267,1,vr,3,3,0
VRTag_036,24,1,27,941.8457,677.1006,1096,451,0,273.6513,2.399964,1,vr,1,1,0
VRTag_037,1,1,26,1470.354,424.3326,614,958,0,1009.031,3.266498,1,vr,1,4,-3
VRTag_037,2,1,47,472.0379,488.485,603,235,0,285.3169,2.29998,1,vr,3,3,0
VRTag_037,3,1,22,1463.272,468.8969,1299,91,0,412.0574,2.116483,1,vr,1,1,0
VRTag_037,4,1,45,1046.932,223.1053,1186,772,0,566.2377,1.799928,1,vr,1,4,-3
VRTag_037,5,1,21,879.3494,424.7477,723,327,1,184.3901,2.416687,1,vr,1,1,0
VRTag_037,6,1,41,450.0326,607.0246,759,788,0,358.0683,2.999931,1,vr,3,2,1