,subject,trial,null,pic_id,act_x,act_y,est_x,est_y,correct,dist,rt,day,condition
0,2,1,1,46,485.915,124.1387,681,557,0,474.7916,6.624735,1,vr
1,2,2,1,18,1129.569,968.9167,952,119,0,868.2678,3.983236,1,vr
2,2,3,1,13,614.1576,150.8841,828,434,0,354.8002,4.449748,1,vr
3,2,4,1,45,985.7661,955.6342,818,639,0,358.3332,6.499925,1,vr
4,2,5,1,26,683.2664,243.4723,1231,327,0,554.0659,6.399928,1,vr
5,2,6,1,15,1182.832,720.1498,705,312,0,628.4181,2.86662,1,vr
6,2,7,1,17,472.2723,832.9962,1051,450,0,693.9826,6.683254,1,vr
7,2,8,1,47,924.6481,177.2901,684,853,0,717.2833,5.366566,1,vr
8,2,9,1,48,806.9364,598.3287,465,201,0,524.2047,3.316627,1,vr
9,2,10,1,16,796.952,204.7375,795,746,0,541.266,9.783247,1,vr
10,2,11,1,40,950.8629,958.1472,1331,333,0,731.651,4.733258,1,vr
11,2,12,1,34,1432.213,295.2111,1118,436,0,344.3132,3.016665,1,vr
12,2,13,1,32,1207.674,139.6408,707,774,0,808.1373,5.099932,1,vr
13,2,14,1,22,1262.832,603.5463,949,759,0,350.2236,5.06659,1,vr
14,2,15,1,20,777.3726,707.1799,970,978,0,332.3385,3.783317,1,vr
15,2,16,1,33,710.6818,423.7559,855,434,1,144.6813,6.98325,1,vr
16,2,17,1,11,877.0296,392.1461,810,628,0,245.1939,6.116627,1,vr
17,2,18,1,21,1347.422,633.5569,1508,208,0,454.8449,3.149912,1,vr
18,2,19,1,6,530.7239,395.2014,1210,881,0,835.1145,2.449983,1,vr
19,2,20,1,41,756.0974,614.1535,848,646,1,97.264,5.699946,1,vr
20,2,21,1,31,1072.857,660.8289,640,472,0,472.2517,4.283285,1,vr
21,2,22,1,12,757.0504,515.7973,1353,657,0,612.4493,3.483238,1,vr
22,2,23,1,1,498.861,257.8482,818,756,0,591.6121,2.316586,1,vr
23,2,24,1,14,1253.095,925.3016,1196,654,0,277.2442,5.866574,1,vr
24,2,25,1,35,985.7661,955.6342,839,441,0,535.1529,13.58313,2,vr
25,2,26,1,18,777.3726,707.1799,957,113,0,620.7381,2.866569,2,vr
26,2,27,1,2,1182.832,720.1498,829,664,0,358.2591,4.599791,2,vr
27,2,28,1,5,498.861,257.8482,496,266,1,8.639278,8.433233,2,vr
28,2,29,1,23,1129.569,968.9167,725,892,0,411.8154,7.049898,2,vr
29,2,30,1,8,877.0296,392.1461,664,169,0,308.5057,3.416594,2,vr
30,2,31,1,3,796.952,204.7375,1199,858,0,767.0688,4.149883,2,vr
31,2,32,1,4,757.0504,515.7973,494,430,0,276.6888,3.483235,2,vr
32,2,33,1,7,614.1576,150.8841,497,452,0,323.1048,6.449887,2,vr
33,2,34,1,30,1072.857,660.8289,1202,341,0,344.9179,10.76656,2,vr
34,2,35,1,25,1207.674,139.6408,709,673,0,730.1696,2.899876,2,vr
35,2,36,1,27,472.2723,832.9962,699,876,0,230.7699,7.166509,2,vr
36,2,37,1,36,1432.213,295.2111,429,425,0,1011.574,7.849857,2,vr
37,2,38,1,24,1347.422,633.5569,637,466,0,729.9146,3.866595,2,vr
38,2,39,1,39,710.6818,423.7559,885,573,0,229.4791,11.51652,2,vr
39,2,40,1,9,530.7239,395.2014,828,353,0,300.2566,7.066606,2,vr
40,2,41,1,43,485.915,124.1387,837,773,0,737.7545,4.949882,2,vr
41,2,42,1,44,806.9364,598.3287,1247,233,0,571.9449,9.549871,2,vr
42,2,43,1,42,924.6481,177.2901,1325,337,0,431.0323,6.266552,2,vr
43,2,44,1,29,1262.832,603.5463,945,455,0,350.8323,14.36653,2,vr
44,2,45,1,28,683.2664,243.4723,698,672,0,428.7809,3.016631,2,vr
45,2,46,1,38,756.0974,614.1535,512,161,0,514.7151,3.199918,2,vr
46,2,47,1,37,950.8629,958.1472,1484,112,0,1000.1,6.533252,2,vr
47,2,48,1,10,1253.095,925.3016,1257,89,0,836.3107,6.449884,2,vr
0,3,1,1,20,1179.799,649.7983,978,74,0,610.1364,2.20753,1,vr
1,3,2,1,41,584.4082,698.7332,1356,285,0,875.5165,1.783254,1,vr
2,3,3,1,22,662.7762,910.7659,1086,769,0,446.3361,2.733172,1,vr
3,3,4,1,16,1050.77,505.0034,576,877,0,603.1483,2.66651,1,vr
4,3,5,1,21,535.7251,190.1089,824,587,0,490.5354,1.683304,1,vr
5,3,6,1,33,1017.457,443.1572,841,467,1,178.06,1.533273,1,vr
6,3,7,1,12,883.7024,144.3,1370,369,0,535.7008,3.383204,1,vr
7,3,8,1,15,644.3386,326.3045,1232,762,0,731.5575,1.899897,1,vr
8,3,9,1,14,522.7211,806.7006,616,856,1,105.5054,3.716616,1,vr
9,3,10,1,11,490.5938,605.1351,627,967,0,386.7206,2.299928,1,vr
10,3,11,1,13,1301.188,346.0394,1101,414,0,211.409,3.099905,1,vr
11,3,12,1,32,1037.592,854.7784,931,562,0,311.5784,3.166493,1,vr
12,3,13,1,40,520.6693,859.4356,1421,857,0,900.334,2.233237,1,vr
13,3,14,1,6,867.5832,370.8642,744,384,1,124.2794,4.166648,1,vr
14,3,15,1,47,1328.429,781.7761,568,675,0,767.8886,1.88326,1,vr
15,3,16,1,46,823.3728,800.2204,1072,578,0,333.4628,1.749935,1,vr
16,3,17,1,18,1457.585,913.3595,670,783,0,798.3007,1.999966,1,vr
17,3,18,1,31,1137.731,526.0976,818,543,0,320.1774,1.566606,1,vr
18,3,19,1,34,1113.548,697.4092,1121,553,1,144.6014,2.383235,1,vr
19,3,20,1,48,917.9992,122.3871,1325,783,0,775.9246,3.699892,1,vr
20,3,21,1,26,1329.432,208.4837,792,665,0,705.1529,3.383162,1,vr
21,3,22,1,1,1309.764,401.7232,1280,405,1,29.94388,6.016587,1,vr
22,3,23,1,17,908.1397,714.4867,908,576,1,138.4868,2.033225,1,vr
23,3,24,1,45,662.9947,391.746,1123,483,0,468.9693,2.266592,1,vr
24,3,25,1,38,584.4082,698.7332,1106,623,0,527.0612,2.549865,2,vr
25,3,26,1,25,1037.592,854.7784,828,743,0,237.5359,2.166581,2,vr
26,3,27,1,30,1329.432,208.4837,1069,759,0,609.01,1.783302,2,vr
27,3,28,1,3,522.7211,806.7006,1282,382,0,869.9857,3.116578,2,vr
28,3,29,1,9,867.5832,370.8642,845,390,1,29.60036,2.833209,2,vr
29,3,30,1,44,1328.429,781.7761,1077,539,0,349.5091,2.333244,2,vr
30,3,31,1,39,1017.457,443.1572,629,245,0,436.0788,3.166606,2,vr
31,3,32,1,7,1301.188,346.0394,1263,876,0,531.3347,4.816507,2,vr
32,3,33,1,10,1050.77,505.0034,816,222,0,367.7061,4.13325,2,vr
33,3,34,1,23,1137.731,526.0976,816,772,0,404.943,1.899924,2,vr
34,3,35,1,28,1179.799,649.7983,1081,752,1,142.1492,2.916586,2,vr
35,3,36,1,8,883.7024,144.3,734,509,0,394.2295,3.266613,2,vr
36,3,37,1,4,1309.764,401.7232,1215,447,1,105.0248,4.216562,2,vr
37,3,38,1,24,535.7251,190.1089,1039,750,0,752.8371,3.633246,2,vr
38,3,39,1,5,644.3386,326.3045,1282,362,0,638.6597,5.383258,2,vr
39,3,40,1,27,662.7762,910.7659,881,767,0,261.324,3.566629,2,vr
40,3,41,1,43,1113.548,697.4092,892,498,0,298.073,3.89992,2,vr
41,3,42,1,36,662.9947,391.746,1092,604,0,478.6411,1.833255,2,vr
42,3,43,1,35,520.6693,859.4356,1085,554,0,641.6853,2.033283,2,vr
43,3,44,1,29,908.1397,714.4867,1226,777,0,323.9492,3.433276,2,vr
44,3,45,1,2,490.5938,605.1351,649,770,0,228.6328,3.733262,2,vr
45,3,46,1,37,917.9992,122.3871,660,579,0,524.4606,4.316615,2,vr
46,3,47,1,42,823.3728,800.2204,874,507,0,297.559,3.666612,2,vr
47,3,48,1,18,1457.585,913.3595,1085,741,0,410.521,2.266563,2,vr
0,4,1,1,33,1027.73,950.4854,1325,538,0,508.4425,2.316534,1,video
1,4,2,1,17,846.7058,246.6719,729,527,0,304.037,8.633186,1,video
2,4,3,1,1,1207.872,618.6556,598,743,0,622.419,2.366637,1,video
3,4,4,1,18,608.5297,560.0752,527,874,0,324.3391,2.03319,1,video
4,4,5,1,21,879.3494,424.7477,1135,178,0,355.305,2.199969,1,video
5,4,6,1,46,715.8719,664.4652,968,96,0,621.8692,2.966576,1,video
6,4,7,1,14,1256.356,722.3654,576,283,0,809.8931,2.866636,1,video
7,4,8,1,13,654.2967,757.4363,1272,754,0,617.7128,2.166582,1,video
8,4,9,1,32,587.7682,219.4759,1423,784,0,1008.117,6.833262,1,video
9,4,10,1,45,1046.932,223.1053,1023,987,0,764.2695,4.71658,1,video
10,4,11,1,11,1023.647,363.4176,1318,270,0,308.821,5.383311,1,video
11,4,12,1,48,529.2393,578.7317,1341,944,0,890.1552,1.983266,1,video
12,4,13,1,16,687.3292,249.5658,517,228,1,171.689,2.449941,1,video
13,4,14,1,6,584.9852,377.5215,769,234,0,233.3664,2.399944,1,video
14,4,15,1,26,1470.354,424.3326,533,526,0,942.8513,4.683222,1,video
15,4,16,1,15,1176.674,515.2168,1028,265,0,291.054,2.866563,1,video
16,4,17,1,40,597.0003,910.5029,502,262,0,655.4244,1.866632,1,video
17,4,18,1,34,730.3889,513.8439,1219,770,0,551.6854,6.533193,1,video
18,4,19,1,12,534.4372,161.2045,1320,260,0,791.7509,2.06658,1,video
19,4,20,1,22,1463.272,468.8969,1309,58,0,438.9032,1.949951,1,video
20,4,21,1,47,472.0379,488.485,516,367,1,129.1947,1.933127,1,video
21,4,22,1,41,450.0326,607.0246,1371,557,0,922.325,1.866575,1,video
22,4,23,1,31,1238.672,883.8056,519,877,0,719.7046,3.133227,1,video
23,4,24,1,20,1244.092,384.1682,805,514,0,457.8845,1.983215,1,video
24,4,25,1,5,1023.647,363.4176,560,267,0,473.5663,2.883295,2,video
25,4,26,1,9,534.4372,161.2045,1351,789,0,1030.001,5.616643,2,video
26,4,27,1,42,1027.73,950.4854,1357,676,0,428.6737,3.316547,2,video
27,4,28,1,30,587.7682,219.4759,632,547,0,330.4973,1.916607,2,video
28,4,29,1,25,608.5297,560.0752,522,548,1,87.36822,2.916571,2,video
29,4,30,1,27,1470.354,424.3326,1398,544,1,139.8405,4.583238,2,video
30,4,31,1,23,1463.272,468.8969,762,921,0,834.3737,7.949917,2,video
31,4,32,1,29,1238.672,883.8056,775,685,0,504.4956,5.649946,2,video
32,4,33,1,43,529.2393,578.7317,1404,518,0,876.8664,4.083251,2,video
33,4,34,1,39,472.0379,488.485,707,799,0,389.3928,6.749952,2,video
34,4,35,1,2,654.2967,757.4363,1324,347,0,785.4683,3.166612,2,video
35,4,36,1,10,1256.356,722.3654,509,171,0,928.7332,4.333286,2,video
36,4,37,1,44,597.0003,910.5029,519,529,0,389.3951,2.099922,2,video
37,4,38,1,4,1176.674,515.2168,1270,330,0,207.4006,5.749949,2,video
38,4,39,1,18,879.3494,424.7477,521,911,0,604.0328,3.14992,2,video
39,4,40,1,8,1207.872,618.6556,1416,471,0,255.1851,2.783228,2,video
40,4,41,1,38,1046.932,223.1053,1401,554,0,484.6186,9.933189,2,video
41,4,42,1,28,846.7058,246.6719,778,394,1,162.561,2.266566,2,video
42,4,43,1,37,730.3889,513.8439,781,544,1,58.91411,2.116614,2,video
43,4,44,1,3,687.3292,249.5658,1136,540,0,534.4694,1.916544,2,video
44,4,45,1,36,450.0326,607.0246,1181,732,0,741.5741,1.799953,2,video
45,4,46,1,24,1244.092,384.1682,638,178,0,640.1977,3.23331,2,video
46,4,47,1,7,584.9852,377.5215,1269,806,0,807.1369,3.0832,2,video
47,4,48,1,35,715.8719,664.4652,1154,916,0,505.199,1.716601,2,video
0,5,1,1,24,795.0742,227.1232,878,336,1,136.8607,3.233237,1,vr
1,5,2,1,44,894.4053,153.5085,647,157,0,247.43,1.933262,1,vr
2,5,3,1,37,1364.465,615.5713,706,340,0,713.804,1.96657,1,vr
3,5,4,1,7,664.1867,323.5267,1040,717,0,544.1111,3.799879,1,vr
4,5,5,1,8,1230.152,911.5628,1390,911,1,159.8485,2.033274,1,vr
5,5,6,1,36,1046.241,878.0591,1146,783,1,137.797,3.016542,1,vr
6,5,7,1,25,906.5691,326.1887,1029,718,0,410.4941,1.916585,1,vr
7,5,8,1,35,594.5308,448.5057,1049,688,0,513.7117,2.466604,1,vr
8,5,9,1,9,491.4894,345.4384,643,444,1,180.748,2.933229,1,vr
9,5,10,1,3,632.7147,407.2358,775,194,0,256.3486,2.449958,1,vr
10,5,11,1,30,1412.307,830.0535,1416,450,0,380.0714,4.466519,1,vr
11,5,12,1,18,1185.109,785.2578,1331,562,0,266.6988,2.983308,1,vr
12,5,13,1,27,1355.253,578.9939,914,252,0,549.2076,2.166609,1,vr
13,5,14,1,29,703.6147,567.2982,854,782,0,262.1309,3.033318,1,vr
14,5,15,1,28,1037.379,735.9549,547,628,0,502.1213,1.766604,1,vr
15,5,16,1,23,1039.976,604.3633,1185,810,0,251.6314,3.499919,1,vr
16,5,17,1,43,695.0182,669.9137,1282,447,0,627.8839,1.866573,1,vr
17,5,18,1,2,1175.664,424.8574,824,804,0,517.1233,3.166579,1,vr
18,5,19,1,38,614.9963,628.6899,1035,697,0,425.5225,2.516623,1,vr
19,5,20,1,42,985.545,226.1378,1263,757,0,598.9958,2.483254,1,vr
20,5,21,1,4,1405.167,526.068,766,436,0,645.4818,1.849983,1,vr
21,5,22,1,5,566.9819,951.9956,930,218,0,818.86,2.199914,1,vr
22,5,23,1,10,1426.222,870.3633,1024,599,0,485.2015,1.666616,1,vr
23,5,24,1,39,871.3859,724.0296,583,362,0,462.8519,2.066547,1,vr
24,5,25,1,13,632.7147,407.2358,1139,916,0,717.7506,5.633226,2,vr
25,5,26,1,16,1426.222,870.3633,1324,460,0,422.9035,7.549896,2,vr
26,5,27,1,26,1185.109,785.2578,1060,765,1,126.7383,2.88329,2,vr
27,5,28,1,6,1175.664,424.8574,1126,930,0,507.5781,2.233289,2,vr
28,5,29,1,45,985.545,226.1378,1079,754,0,536.0712,3.633221,2,vr
29,5,30,1,46,695.0182,669.9137,494,193,0,517.5471,2.11659,2,vr
30,5,31,1,18,1039.976,604.3633,1423,536,0,389.0769,1.916575,2,vr
31,5,32,1,31,1037.379,735.9549,1073,638,1,104.2306,2.783252,2,vr
32,5,33,1,48,894.4053,153.5085,829,670,0,520.6163,2.683254,2,vr
33,5,34,1,33,871.3859,724.0296,663,333,0,443.0901,2.65001,2,vr
34,5,35,1,11,566.9819,951.9956,1215,448,0,820.9379,6.816597,2,vr
35,5,36,1,14,664.1867,323.5267,1213,775,0,710.6505,2.416639,2,vr
36,5,37,1,41,614.9963,628.6899,570,396,0,237.0005,2.749936,2,vr
37,5,38,1,32,703.6147,567.2982,717,660,1,93.66319,1.933271,2,vr
38,5,39,1,40,594.5308,448.5057,1168,914,0,738.6148,2.216564,2,vr
39,5,40,1,15,1230.152,911.5628,679,630,0,618.9077,3.583272,2,vr
40,5,41,1,47,1046.241,878.0591,481,433,0,719.4272,2.199986,2,vr
41,5,42,1,34,1364.465,615.5713,614,174,0,870.7373,2.216554,2,vr
42,5,43,1,12,491.4894,345.4384,860,714,0,521.1888,4.51657,2,vr
43,5,44,1,21,1412.307,830.0535,1145,818,0,267.5787,3.383289,2,vr
44,5,45,1,17,906.5691,326.1887,640,183,0,302.5923,1.649937,2,vr
45,5,46,1,20,1355.253,578.9939,1071,443,0,315.1094,4.733261,2,vr
46,5,47,1,22,795.0742,227.1232,522,640,0,495.0119,2.349941,2,vr
47,5,48,1,1,1405.167,526.068,674,446,0,735.5379,2.333227,2,vr
0,6,1,1,12,1132.361,423.9424,1118,309,1,115.8361,6.849856,1,vr
1,6,2,1,17,1232.463,111.2988,1127,329,0,241.9014,3.416554,1,vr
2,6,3,1,48,890.0183,444.2124,445,291,0,470.6541,4.016639,1,vr
3,6,4,1,40,746.938,866.6907,865,334,0,545.6171,7.899973,1,vr
4,6,5,1,22,1348.995,568.726,1423,439,1,149.3506,6.083289,1,vr
5,6,6,1,31,1125.18,230.0921,578,901,0,865.7499,3.03327,1,vr
6,6,7,1,32,883.3632,156.0186,534,438,0,448.9635,10.76656,1,vr
7,6,8,1,47,1111.573,345.5776,1212,676,0,345.347,6.683296,1,vr
8,6,9,1,15,1362.339,788.6614,718,340,0,785.1559,14.18193,1,vr
9,6,10,1,46,909.053,482.8801,828,870,0,395.5141,7.449892,1,vr
10,6,11,1,13,1310.853,850.3411,879,236,0,750.9407,3.599953,1,vr
11,6,12,1,33,862.071,245.3619,637,882,0,675.2518,5.18331,1,vr
12,6,13,1,1,1455.797,622.2677,1081,791,0,411.0269,7.866544,1,vr
13,6,14,1,6,951.9457,686.5605,1127,776,1,196.5793,19.09988,1,vr
14,6,15,1,11,781.3953,480.1348,912,179,0,328.2374,2.683243,1,vr
15,6,16,1,20,953.5014,782.6821,1365,279,0,650.405,3.766569,1,vr
16,6,17,1,45,662.2623,942.4657,1352,453,0,845.7628,3.266551,1,vr
17,6,18,1,14,547.4969,858.1558,1064,820,0,517.9105,3.999929,1,vr
18,6,19,1,26,880.5864,131.7903,1465,777,0,870.5371,3.749955,1,vr
19,6,20,1,16,765.7742,935.882,964,628,0,366.1759,2.799882,1,vr
20,6,21,1,34,1095.071,921.5809,591,603,0,596.3065,5.066582,1,vr
21,6,22,1,41,1429.632,523.177,1055,167,0,516.9247,3.783289,1,vr
22,6,23,1,18,1018.916,409.5658,738,758,0,447.5714,7.116565,1,vr
23,6,24,1,21,883.4866,785.7841,883,273,0,512.7844,5.283293,1,vr
24,6,25,1,25,883.4866,785.7841,461,241,0,689.4089,3.133339,2,vr
25,6,26,1,29,1018.916,409.5658,1153,798,0,410.9254,13.99979,2,vr
26,6,27,1,8,1455.797,622.2677,1176,250,0,465.6925,5.516588,2,vr
27,6,28,1,43,890.0183,444.2124,967,218,0,238.9524,2.866585,2,vr
28,6,29,1,30,883.3632,156.0186,861,438,0,282.8668,4.399908,2,vr
29,6,30,1,5,547.4969,858.1558,1344,542,0,856.9549,4.466633,2,vr
30,6,31,1,2,1132.361,423.9424,1118,746,0,322.3776,7.183195,2,vr
31,6,32,1,38,862.071,245.3619,730,317,1,150.249,24.13312,2,vr
32,6,33,1,23,880.5864,131.7903,1345,736,0,762.0692,19.04973,2,vr
33,6,34,1,18,1348.995,568.726,709,555,0,640.142,8.433199,2,vr
34,6,35,1,37,746.938,866.6907,1241,314,0,741.326,6.283238,2,vr
35,6,36,1,36,909.053,482.8801,1212,330,0,339.3364,3.116574,2,vr
36,6,37,1,39,1429.632,523.177,1015,237,0,503.8025,5.766577,2,vr
37,6,38,1,9,781.3953,480.1348,1111,495,0,329.9398,8.18325,2,vr
38,6,39,1,3,1362.339,788.6614,1450,792,1,87.72453,7.549852,2,vr
39,6,40,1,10,1310.853,850.3411,1127,889,1,187.8733,4.516601,2,vr
40,6,41,1,4,765.7742,935.882,1361,813,0,607.7777,3.516619,2,vr
41,6,42,1,42,1111.573,345.5776,661,751,0,606.1215,3.849939,2,vr
42,6,43,1,24,1125.18,230.0921,713,804,0,706.5849,9.583194,2,vr
43,6,44,1,27,1232.463,111.2988,737,344,0,547.388,11.31655,2,vr
44,6,45,1,35,1095.071,921.5809,621,822,0,484.4169,12.89986,2,vr
45,6,46,1,44,662.2623,942.4657,1114,807,0,471.612,9.799882,2,vr
46,6,47,1,28,953.5014,782.6821,1320,721,0,371.6529,6.566594,2,vr
47,6,48,1,7,951.9457,686.5605,798,319,0,398.4972,16.66652,2,vr
0,7,1,1,6,1250.838,241.2645,651,574,0,685.9436,2.333242,1,video
1,7,2,1,47,897.8621,412.8931,954,398,1,58.07981,1.549922,1,video
2,7,3,1,45,1211.89,895.7911,1153,683,0,220.7897,1.683231,1,video
3,7,4,1,31,563.7664,664.8497,762,793,0,236.0489,1.583259,1,video
4,7,5,1,22,1405.007,162.0825,1104,390,0,377.5598,1.533305,1,video
5,7,6,1,13,1099.609,264.637,1316,234,0,218.5489,2.133266,1,video
6,7,7,1,48,1350.686,321.1371,860,297,0,491.2792,1.549891,1,video
7,7,8,1,20,836.7077,467.3857,956,812,0,364.6775,1.899945,1,video
8,7,9,1,21,1311.67,586.0976,720,295,0,659.4026,3.449956,1,video
9,7,10,1,17,1111.608,624.4696,1119,673,1,49.09013,2.450002,1,video
10,7,11,1,18,923.9624,888.1325,1184,243,0,695.5685,1.983282,1,video
11,7,12,1,11,814.3153,840.789,1170,967,0,377.4133,2.333306,1,video
12,7,13,1,41,1167.543,319.6742,1079,435,1,145.3957,3.949913,1,video
13,7,14,1,12,726.2688,571.4897,772,722,1,157.3045,2.649995,1,video
14,7,15,1,26,1096.72,894.6056,988,667,0,252.2388,1.833294,1,video
15,7,16,1,1,1471.495,941.8993,837,856,0,640.2829,1.799856,1,video
16,7,17,1,33,1257.369,714.5516,691,295,0,704.8385,2.466587,1,video
17,7,18,1,32,1135.65,179.8199,953,222,1,187.4575,3.666642,1,video
18,7,19,1,15,1421.462,559.0708,1140,899,0,441.3305,2.799984,1,video
19,7,20,1,14,1130.096,297.3461,655,677,0,608.1555,3.216606,1,video
20,7,21,1,46,760.1485,751.9358,848,565,0,206.5499,2.099955,1,video
21,7,22,1,16,807.1291,760.5935,1010,894,0,242.8043,2.633272,1,video
22,7,23,1,40,632.4665,743.8294,704,894,1,166.3378,2.416636,1,video
23,7,24,1,34,810.7628,681.7539,807,678,1,5.315115,3.149941,1,video
24,7,25,1,8,726.2688,571.4897,1169,860,0,528.4403,2.824708,2,video
25,7,26,1,25,923.9624,888.1325,775,777,1,185.8501,2.166597,2,video
26,7,27,1,2,814.3153,840.789,1271,566,0,532.9821,2.366425,2,video
27,7,28,1,24,1111.608,624.4696,1415,274,0,463.5466,2.899923,2,video
28,7,29,1,44,1211.89,895.7911,815,207,0,794.9559,1.999944,2,video
29,7,30,1,27,563.7664,664.8497,902,795,0,362.4101,1.983269,2,video
30,7,31,1,38,760.1485,751.9358,952,323,0,469.886,2.533274,2,video
31,7,32,1,29,1405.007,162.0825,1188,896,0,765.3279,1.966594,2,video
32,7,33,1,42,1257.369,714.5516,588,230,0,826.3444,2.283256,2,video
33,7,34,1,39,810.7628,681.7539,819,345,0,336.8547,2.366569,2,video
34,7,35,1,43,632.4665,743.8294,958,758,0,325.8417,2.316602,2,video
35,7,36,1,28,836.7077,467.3857,915,161,0,316.2307,2.299939,2,video
36,7,37,1,5,1099.609,264.637,803,735,0,556.074,2.799918,2,video
37,7,38,1,4,1130.096,297.3461,1181,751,0,456.5009,3.749924,2,video
38,7,39,1,3,1421.462,559.0708,862,343,0,599.7368,4.966605,2,video
39,7,40,1,37,1167.543,319.6742,877,640,0,432.4626,2.016519,2,video
40,7,41,1,9,807.1291,760.5935,813,820,1,59.69594,6.133292,2,video
41,7,42,1,7,1471.495,941.8993,1217,360,0,635.1176,6.816583,2,video
42,7,43,1,23,1311.67,586.0976,1072,414,0,295.0585,1.99984,2,video
43,7,44,1,35,897.8621,412.8931,1207,550,0,338.1782,2.166511,2,video
44,7,45,1,30,1096.72,894.6056,1042,246,0,650.9098,8.333162,2,video
45,7,46,1,10,1250.838,241.2645,832,679,0,605.8364,4.533221,2,video
46,7,47,1,18,1135.65,179.8199,1204,229,1,84.20427,3.616569,2,video
47,7,48,1,36,1350.686,321.1371,1210,439,1,183.5325,7.116555,2,video
0,8,1,1,4,633.3642,379.083,1229,532,0,614.9517,2.649855,1,video
1,8,2,1,42,778.3409,737.3964,766,705,1,34.66732,6.316573,1,video
2,8,3,1,18,727.0957,636.9258,1299,796,0,593.6153,2.74995,1,video
3,8,4,1,3,738.7866,162.6488,1292,174,0,553.3298,3.266604,1,video
4,8,5,1,28,1198.783,895.0673,567,229,0,918.0391,3.633243,1,video
5,8,6,1,39,518.2624,747.531,818,402,0,457.4213,3.066606,1,video
6,8,7,1,25,886.8767,939.5459,1147,257,0,730.4335,1.899969,1,video
7,8,8,1,2,1421.865,459.4069,847,704,0,624.7364,2.216622,1,video
8,8,9,1,35,1126.423,163.6415,958,675,0,538.3809,2.333259,1,video
9,8,10,1,38,918.41,477.2865,1191,280,0,336.4926,3.066544,1,video
10,8,11,1,9,1165,498.1905,1095,709,0,222.1277,3.083256,1,video
11,8,12,1,8,1159.416,940.4337,640,372,0,770.0062,2.433249,1,video
12,8,13,1,30,1133.573,322.6012,448,706,0,785.497,4.766571,1,video
13,8,14,1,10,1063.977,649.8731,1137,338,0,320.3079,3.499897,1,video
14,8,15,1,27,1292.815,536.9986,573,233,0,781.3758,3.366625,1,video
15,8,16,1,5,1101.34,132.1156,1092,156,1,25.64555,4.266559,1,video
16,8,17,1,7,904.0121,676.053,1343,538,0,460.1837,3.04996,1,video
17,8,18,1,36,1247.47,707.8422,868,537,0,416.1548,4.549958,1,video
18,8,19,1,29,1335.442,154.9955,1345,777,0,622.0779,2.749974,1,video
19,8,20,1,37,768.893,311.8297,1360,873,0,815.058,2.416611,1,video
20,8,21,1,44,1050.814,167.9891,806,410,0,344.2426,2.166617,1,video
21,8,22,1,24,947.8728,799.7992,1277,813,0,329.3918,2.566539,1,video
22,8,23,1,43,1281.87,882.432,1149,260,0,636.4558,2.399902,1,video
23,8,24,1,23,675.9123,298.6475,1352,121,0,699.0373,2.09995,1,video
24,8,25,1,40,768.893,311.8297,957,271,1,192.4871,5.249866,2,video
25,8,26,1,16,1165,498.1905,709,626,0,473.5733,6.066623,2,video
26,8,27,1,33,1247.47,707.8422,1488,550,0,287.6954,2.466509,2,video
27,8,28,1,6,1159.416,940.4337,1472,374,0,646.9591,6.166544,2,video
28,8,29,1,47,1050.814,167.9891,722,272,0,344.8719,2.499927,2,video
29,8,30,1,45,1126.423,163.6415,961,566,0,435.0371,3.71659,2,video
30,8,31,1,34,918.41,477.2865,574,269,0,402.4941,2.483297,2,video
31,8,32,1,1,1421.865,459.4069,767,645,0,680.6563,5.483259,2,video
32,8,33,1,26,727.0957,636.9258,558,380,0,307.578,4.78331,2,video
33,8,34,1,22,947.8728,799.7992,1268,797,0,320.1394,4.783185,2,video
34,8,35,1,20,1198.783,895.0673,1324,736,0,202.4391,4.63326,2,video
35,8,36,1,18,675.9123,298.6475,1300,785,0,791.2169,3.283281,2,video
36,8,37,1,13,1063.977,649.8731,826,653,0,237.9975,2.099947,2,video
37,8,38,1,15,738.7866,162.6488,822,831,0,673.5115,1.983269,2,video
38,8,39,1,31,1292.815,536.9986,1278,375,1,162.6746,4.049912,2,video
39,8,40,1,17,1335.442,154.9955,1226,271,1,159.4821,7.96656,2,video
40,8,41,1,12,904.0121,676.053,960,876,0,207.6378,2.116563,2,video
41,8,42,1,46,518.2624,747.531,763,430,0,400.902,5.616543,2,video
42,8,43,1,21,1133.573,322.6012,588,269,0,548.2002,3.616573,2,video
43,8,44,1,32,886.8767,939.5459,520,270,0,763.4725,2.583262,2,video
44,8,45,1,14,1101.34,132.1156,1223,424,0,316.2242,5.033237,2,video
45,8,46,1,11,633.3642,379.083,1126,697,0,586.3116,5.099912,2,video
46,8,47,1,48,778.3409,737.3964,814,443,0,296.5481,3.299906,2,video
47,8,48,1,41,1281.87,882.432,1094,272,0,638.6879,3.099925,2,video
0,9,1,1,24,731.1223,259.4339,1090,219,0,361.1484,7.349874,1,video
1,9,2,1,3,1259.43,563.9661,724,680,0,547.8588,6.849911,1,video
2,9,3,1,39,639.7861,514.2467,1237,682,0,620.327,3.399929,1,video
3,9,4,1,43,1104.347,127.3436,581,465,0,622.8192,2.69992,1,video
4,9,5,1,38,1371.217,328.4903,686,304,0,685.6542,4.549904,1,video
5,9,6,1,9,1132.97,483.9225,1210,329,1,173.0162,3.533291,1,video
6,9,7,1,28,727.7277,731.2601,1236,772,0,509.9024,2.833288,1,video
7,9,8,1,18,561.7796,157.306,1191,199,0,630.6003,4.133303,1,video
8,9,9,1,23,790.1259,807.3013,1093,242,0,641.3254,2.99988,1,video
9,9,10,1,29,1248.002,347.4494,1083,435,1,186.7908,2.249919,1,video
10,9,11,1,30,1458.257,167.076,858,663,0,778.6203,4.099926,1,video
11,9,12,1,42,896.8325,807.417,1174,424,0,473.1072,8.116561,1,video
12,9,13,1,44,1374.724,648.6784,800,566,0,580.6404,5.199912,1,video
13,9,14,1,7,1255.616,717.6139,1208,208,0,511.8335,2.366564,1,video
14,9,15,1,10,627.6132,331.733,602,838,0,506.9145,3.949857,1,video
15,9,16,1,27,1281.307,169.6921,1186,418,0,265.9706,4.233185,1,video
16,9,17,1,2,1229.408,327.6952,1214,647,0,319.6763,3.46657,1,video
17,9,18,1,35,481.7891,822.5664,949,656,0,496.0145,2.199896,1,video
18,9,19,1,8,667.9943,874.3482,589,632,0,254.8975,2.849956,1,video
19,9,20,1,4,728.3154,713.6603,620,213,0,512.2431,7.233224,1,video
20,9,21,1,5,1188.784,116.1408,739,675,0,717.3763,2.083275,1,video
21,9,22,1,25,712.867,620.3439,448,140,0,548.5297,2.099946,1,video
22,9,23,1,37,1339.972,875.2115,917,626,0,490.9298,6.866594,1,video
23,9,24,1,36,480.4714,126.4626,922,633,0,671.958,2.199888,1,video
24,9,25,1,32,1281.307,169.6921,1059,731,0,603.7278,8.366359,2,video
25,9,26,1,20,731.1223,259.4339,539,642,0,428.0978,3.333333,2,video
26,9,27,1,41,1371.217,328.4903,535,128,0,859.9155,4.566599,2,video
27,9,28,1,16,1255.616,717.6139,1217,444,0,276.3254,2.766628,2,video
28,9,29,1,11,627.6132,331.733,1184,548,0,596.9403,4.316555,2,video
29,9,30,1,1,1132.97,483.9225,1178,397,1,97.89392,7.283258,2,video
30,9,31,1,21,712.867,620.3439,855,653,1,145.8362,3.566549,2,video
31,9,32,1,22,1248.002,347.4494,578,874,0,852.1493,3.333247,2,video
32,9,33,1,15,728.3154,713.6603,676,730,1,54.80777,3.399909,2,video
33,9,34,1,34,1339.972,875.2115,666,517,0,763.2524,4.06657,2,video
34,9,35,1,47,480.4714,126.4626,659,308,0,254.6139,3.299865,2,video
35,9,36,1,18,1458.257,167.076,1052,129,0,408.0378,4.43322,2,video
36,9,37,1,33,1104.347,127.3436,1101,667,0,539.6668,4.433302,2,video
37,9,38,1,46,1374.724,648.6784,1341,635,1,36.39225,6.433244,2,video
38,9,39,1,17,727.7277,731.2601,1199,882,0,494.7929,4.883235,2,video
39,9,40,1,45,639.7861,514.2467,923,340,0,332.5237,4.233262,2,video
40,9,41,1,48,481.7891,822.5664,696,428,0,448.9643,3.249916,2,video
41,9,42,1,12,1259.43,563.9661,1176,518,1,95.25474,3.316581,2,video
42,9,43,1,40,896.8325,807.417,783,421,0,402.8349,3.43322,2,video
43,9,44,1,13,1229.408,327.6952,557,535,0,703.6389,3.916602,2,video
44,9,45,1,14,1188.784,116.1408,535,194,0,658.4033,2.8832,2,video
45,9,46,1,6,667.9943,874.3482,1197,193,0,862.6021,3.466577,2,video
46,9,47,1,26,561.7796,157.306,1049,840,0,838.7221,4.433236,2,video
47,9,48,1,31,790.1259,807.3013,1054,729,0,275.2465,9.933202,2,video
0,10,1,1,37,1085.116,919.0566,1235,954,1,153.9035,9.083229,1,vr
1,10,2,1,7,1359.626,543.6223,969,646,0,403.8195,5.349949,1,vr
2,10,3,1,29,851.1473,154.0694,1231,780,0,732.1729,2.033187,1,vr
3,10,4,1,39,753.1076,253.5286,547,318,0,215.9558,4.716517,1,vr
4,10,5,1,28,742.8488,494.1732,1192,829,0,560.2194,6.783161,1,vr
5,10,6,1,44,1224.921,210.378,597,973,0,987.8652,3.883267,1,vr
6,10,7,1,25,1357.726,480.4333,708,877,0,761.189,2.016532,1,vr
7,10,8,1,3,1169.324,764.2192,564,435,0,689.059,2.616615,1,vr
8,10,9,1,9,802.3626,557.3484,963,662,1,191.7194,3.149989,1,vr
9,10,10,1,36,950.4891,406.0481,1319,209,0,417.8855,5.283386,1,vr
10,10,11,1,43,997.1138,288.913,550,357,0,452.2683,7.283303,1,vr
11,10,12,1,24,1406.021,272.8632,1150,201,0,265.9156,1.866564,1,vr
12,10,13,1,27,938.7189,691.5026,1176,943,0,345.7647,3.583194,1,vr
13,10,14,1,5,534.4543,612.4382,682,195,0,442.7464,1.799883,1,vr
14,10,15,1,42,1415.579,764.3331,1220,946,0,266.9343,1.899964,1,vr
15,10,16,1,2,853.1124,156.4804,557,626,0,555.0957,3.083283,1,vr
16,10,17,1,8,963.5718,249.038,591,384,0,396.2631,2.333311,1,vr
17,10,18,1,18,488.7951,239.756,1172,721,0,835.6822,2.049936,1,vr
18,10,19,1,30,1011.738,593.8469,1090,440,1,172.6088,5.199898,1,vr
19,10,20,1,23,499.9539,260.9044,581,930,0,673.9861,1.999965,1,vr
20,10,21,1,35,503.2042,957.0122,762,916,0,262.0253,2.066629,1,vr
21,10,22,1,4,1177.287,662.2546,1362,331,0,379.2737,1.999963,1,vr
22,10,23,1,38,1186.644,848.5198,552,724,0,646.7447,4.466628,1,vr
23,10,24,1,10,1348.442,561.4683,824,716,0,546.7349,2.14984,1,vr
24,10,25,1,34,950.4891,406.0481,593,874,0,588.8781,6.516538,2,vr
25,10,26,1,41,503.2042,957.0122,535,359,0,598.8569,8.549897,2,vr
26,10,27,1,17,1357.726,480.4333,1093,827,0,436.1058,6.049923,2,vr
27,10,28,1,18,1406.021,272.8632,1197,869,0,631.719,2.333306,2,vr
28,10,29,1,22,499.9539,260.9044,1080,268,0,580.0895,2.116656,2,vr
29,10,30,1,45,753.1076,253.5286,1307,177,0,559.1542,3.483268,2,vr
30,10,31,1,20,851.1473,154.0694,958,253,1,145.6186,2.916636,2,vr
31,10,32,1,47,1186.644,848.5198,548,273,0,859.7033,3.633316,2,vr
32,10,33,1,48,1224.921,210.378,534,458,0,733.9543,3.96659,2,vr
33,10,34,1,14,1348.442,561.4683,1372,227,0,335.2969,2.966653,2,vr
34,10,35,1,31,488.7951,239.756,535,260,1,50.44518,3.383324,2,vr
35,10,36,1,21,1011.738,593.8469,802,230,0,419.9698,8.89992,2,vr
36,10,37,1,26,938.7189,691.5026,1042,218,0,484.6357,6.433292,2,vr
37,10,38,1,46,997.1138,288.913,529,570,0,546.0224,6.349956,2,vr
38,10,39,1,40,1085.116,919.0566,746,791,0,362.4887,4.66657,2,vr
39,10,40,1,32,742.8488,494.1732,709,575,1,87.62829,5.383283,2,vr
40,10,41,1,13,802.3626,557.3484,535,289,0,378.8056,4.883318,2,vr
41,10,42,1,15,1169.324,764.2192,961,644,0,240.5234,3.316589,2,vr
42,10,43,1,16,1177.287,662.2546,1375,631,0,200.1683,2.283295,2,vr
43,10,44,1,6,1359.626,543.6223,1380,439,1,106.5876,2.733315,2,vr
44,10,45,1,1,853.1124,156.4804,741,541,0,400.5303,4.649898,2,vr
45,10,46,1,33,1415.579,764.3331,560,827,0,857.8707,11.16649,2,vr
46,10,47,1,12,534.4543,612.4382,707,189,0,457.2438,3.716592,2,vr
47,10,48,1,11,963.5718,249.038,960,754,0,504.9746,2.049958,2,vr
0,12,1,1,14,456.6028,217.6809,531,204,1,75.64464,3.823012,1,vr
1,12,2,1,12,1182.589,812.9527,1300,383,0,445.6958,3.249985,1,vr
2,12,3,1,18,786.4226,717.8462,1088,300,0,515.31,5.399827,1,vr
3,12,4,1,22,595.2963,465.5212,1277,340,0,693.1634,11.69989,1,vr
4,12,5,1,48,1208.018,511.5832,770,722,0,485.9372,4.216499,1,vr
5,12,6,1,16,1461.393,813.6597,592,729,0,873.5048,4.749932,1,vr
6,12,7,1,6,642.3594,330.1285,1349,863,0,885.0383,3.2999,1,vr
7,12,8,1,11,665.1368,848.6554,1246,534,0,660.6134,4.73327,1,vr
8,12,9,1,46,714.0255,567.1247,539,411,0,234.5397,4.083243,1,vr
9,12,10,1,34,1125.283,424.6495,565,422,0,560.2888,4.099884,1,vr
10,12,11,1,41,676.7212,483.08,713,649,1,169.8399,6.916604,1,vr
11,12,12,1,47,1428.769,406.11,809,659,0,669.3777,9.233214,1,vr
12,12,13,1,40,920.7645,270.7861,557,743,0,596.0794,2.549998,1,vr
13,12,14,1,33,1120.422,738.8706,1060,300,0,443.0104,2.216604,1,vr
14,12,15,1,31,1371.597,472.5495,1340,254,0,220.8218,4.449923,1,vr
15,12,16,1,17,1255.287,557.3859,726,234,0,620.2606,3.18327,1,vr
16,12,17,1,1,740.4399,461.9946,528,352,0,239.2269,3.51658,1,vr
17,12,18,1,32,700.828,343.9316,1153,220,0,468.8481,3.233259,1,vr
18,12,19,1,26,519.4889,673.7332,668,360,0,347.1081,5.066592,1,vr
19,12,20,1,21,1348.63,429.1661,1279,849,0,425.5688,3.366621,1,vr
20,12,21,1,20,542.1461,897.3066,1193,624,0,705.9088,7.516594,1,vr
21,12,22,1,45,701.673,239.1187,605,750,0,519.9474,9.833257,1,vr
22,12,23,1,13,601.363,885.7689,719,732,1,193.6062,2.849973,1,vr
23,12,24,1,15,851.3951,958.3812,630,295,0,699.35,5.733247,1,vr
24,12,25,1,35,676.7212,483.08,1286,324,0,629.704,9.307745,2,vr
25,12,26,1,30,700.828,343.9316,1180,307,0,480.5931,5.266587,2,vr
26,12,27,1,39,1428.769,406.11,537,405,0,891.7693,3.216479,2,vr
27,12,28,1,9,1182.589,812.9527,661,426,0,649.4514,4.633266,2,vr
28,12,29,1,25,542.1461,897.3066,1281,345,0,922.4682,5.566592,2,vr
29,12,30,1,42,714.0255,567.1247,1281,541,0,567.5761,6.699909,2,vr
30,12,31,1,2,851.3951,958.3812,537,777,0,362.9648,7.499881,2,vr
31,12,32,1,4,740.4399,461.9946,819,624,1,180.0484,15.38318,2,vr
32,12,33,1,28,786.4226,717.8462,1055,273,0,519.6364,4.283315,2,vr
33,12,34,1,10,665.1368,848.6554,592,811,1,82.26129,3.233232,2,vr
34,12,35,1,36,1120.422,738.8706,1278,404,0,370.0933,4.999907,2,vr
35,12,36,1,37,701.673,239.1187,1274,718,0,746.2476,3.566608,2,vr
36,12,37,1,18,595.2963,465.5212,1120,304,0,549.0019,7.683238,2,vr
37,12,38,1,5,642.3594,330.1285,1384,526,0,767.07,9.183268,2,vr
38,12,39,1,38,1208.018,511.5832,516,441,0,695.6083,5.06657,2,vr
39,12,40,1,44,920.7645,270.7861,845,715,0,450.6288,6.283225,2,vr
40,12,41,1,24,1371.597,472.5495,669,291,0,725.6743,3.583214,2,vr
41,12,42,1,43,1125.283,424.6495,757,445,0,368.8443,6.066569,2,vr
42,12,43,1,7,601.363,885.7689,709,551,0,351.6475,14.94985,2,vr
43,12,44,1,29,1255.287,557.3859,1258,693,1,135.6413,2.983239,2,vr
44,12,45,1,23,519.4889,673.7332,1158,607,0,641.9889,7.066561,2,vr
45,12,46,1,27,1348.63,429.1661,1154,322,0,222.1831,5.783179,2,vr
46,12,47,1,3,456.6028,217.6809,546,757,0,546.6781,3.54996,2,vr
47,12,48,1,8,1461.393,813.6597,964,885,0,502.4827,3.749899,2,vr
0,13,1,1,47,558.3506,663.8835,1386,557,0,834.5224,13.52197,1,vr
1,13,2,1,1,1442.309,887.5684,1075,485,0,544.9559,2.383265,1,vr
2,13,3,1,15,607.2554,307.1975,1085,603,0,561.9066,1.783166,1,vr
3,13,4,1,14,1047.535,431.4341,554,339,0,502.1166,3.233265,1,vr
4,13,5,1,18,493.6432,235.4446,584,781,0,552.9874,2.466553,1,vr
5,13,6,1,40,552.081,833.8396,519,545,0,290.7278,4.666514,1,vr
6,13,7,1,31,857.4377,743.9397,1220,329,0,551.023,5.483218,1,vr
7,13,8,1,22,1183.39,673.6641,1239,266,0,411.4395,3.499906,1,vr
8,13,9,1,21,1247.864,937.7205,568,857,0,684.6396,2.299715,1,vr
9,13,10,1,34,1298.838,247.4461,969,809,0,651.2571,4.499934,1,vr
10,13,11,1,6,978.3174,582.7653,1223,880,0,384.991,4.599958,1,vr
11,13,12,1,12,598.5652,341.8446,1252,454,0,662.9901,1.83331,1,vr
12,13,13,1,11,1329.282,247.1314,1302,185,1,67.85722,1.916588,1,vr
13,13,14,1,16,860.7695,888.3005,1097,419,0,525.4025,1.749922,1,vr
14,13,15,1,13,1020.723,966.8289,1069,526,0,443.4645,1.549915,1,vr
15,13,16,1,46,1176.496,720.2418,534,564,0,661.2209,5.216604,1,vr
16,13,17,1,48,500.8746,122.72,1449,539,0,1035.486,2.283237,1,vr
17,13,18,1,33,540.4243,769.1755,1136,826,0,598.2804,4.666336,1,vr
18,13,19,1,32,1280.109,436.765,516,871,0,878.8753,4.449893,1,vr
19,13,20,1,17,1088.246,507.4796,1041,468,1,61.56954,7.166555,1,vr
20,13,21,1,41,1195.666,969.901,1094,293,0,684.4932,5.033262,1,vr
21,13,22,1,45,1011.571,129.8122,697,504,0,488.8468,3.833276,1,vr
22,13,23,1,26,1148.37,315.5546,1069,753,0,444.5876,6.149983,1,vr
23,13,24,1,20,1365.461,375.4177,963,119,0,477.2057,1.833355,1,vr
24,13,25,1,28,1280.109,436.765,551,207,0,764.4549,5.742758,2,vr
25,13,26,1,25,857.4377,743.9397,501,764,0,357.0018,1.999972,2,vr
26,13,27,1,29,1088.246,507.4796,598,235,0,560.8798,2.649853,2,vr
27,13,28,1,24,493.6432,235.4446,1208,330,0,720.5875,4.749978,2,vr
28,13,29,1,39,552.081,833.8396,508,552,0,285.266,5.916578,2,vr
29,13,30,1,3,860.7695,888.3005,1197,745,0,365.4941,5.366629,2,vr
30,13,31,1,8,978.3174,582.7653,1038,515,1,90.30032,1.683264,2,vr
31,13,32,1,44,500.8746,122.72,550,574,0,453.9459,4.433274,2,vr
32,13,33,1,30,1365.461,375.4177,636,859,0,875.1947,4.833326,2,vr
33,13,34,1,7,1442.309,887.5684,1144,426,0,549.5757,4.233197,2,vr
34,13,35,1,4,1329.282,247.1314,618,306,0,713.7137,3.11658,2,vr
35,13,36,1,5,598.5652,341.8446,1240,483,0,656.7826,6.066569,2,vr
36,13,37,1,42,1298.838,247.4461,1396,546,0,313.9664,3.516582,2,vr
37,13,38,1,10,1047.535,431.4341,1255,893,0,506.0482,2.016592,2,vr
38,13,39,1,36,558.3506,663.8835,1023,663,0,464.6503,3.516549,2,vr
39,13,40,1,37,1011.571,129.8122,968,385,0,258.8807,3.333288,2,vr
40,13,41,1,35,1195.666,969.901,1278,596,0,382.8588,3.033309,2,vr
41,13,42,1,27,1247.864,937.7205,1205,258,0,681.0707,5.199894,2,vr
42,13,43,1,18,1183.39,673.6641,637,289,0,668.2129,2.583369,2,vr
43,13,44,1,9,607.2554,307.1975,623,277,1,34.05556,8.816601,2,vr
44,13,45,1,43,540.4243,769.1755,575,590,1,182.481,4.349976,2,vr
45,13,46,1,2,1020.723,966.8289,1236,899,0,225.71,4.28326,2,vr
46,13,47,1,38,1176.496,720.2418,935,770,0,246.5691,4.366599,2,vr
47,13,48,1,23,1148.37,315.5546,1270,215,1,157.8131,2.633253,2,vr
0,14,1,1,30,994.1273,356.8898,603,457,0,403.7358,2.692557,1,video
1,14,2,1,4,1200.574,755.5924,1304,340,0,428.2686,3.716599,1,video
2,14,3,1,27,1034.346,612.0095,838,388,0,297.8792,5.083071,1,video
3,14,4,1,42,670.2504,858.0984,1299,873,0,628.9262,2.033246,1,video
4,14,5,1,23,1167.485,178.8664,562,516,0,693.0162,2.783224,1,video
5,14,6,1,35,1264.883,473.7692,1264,633,1,159.2333,1.98322,1,video
6,14,7,1,38,925.8889,349.5766,866,371,1,63.60533,2.049927,1,video
7,14,8,1,2,755.4427,358.0251,1347,314,0,593.1933,3.69996,1,video
8,14,9,1,10,1111.088,429.4949,1049,202,0,235.8153,1.783227,1,video
9,14,10,1,24,994.7312,906.9215,961,538,0,370.4603,2.74991,1,video
10,14,11,1,37,1291.859,798.045,1324,457,0,342.5562,3.683258,1,video
11,14,12,1,18,985.7252,483.8568,973,522,1,40.20988,2.633226,1,video
12,14,13,1,3,1329.478,490.7432,1152,773,0,333.4175,3.683332,1,video
13,14,14,1,9,1044.748,285.5551,997,758,0,474.8517,2.299935,1,video
14,14,15,1,8,758.8978,152.6964,1226,380,0,519.4722,2.749922,1,video
15,14,16,1,7,1394.985,383.0158,1345,174,0,214.9095,2.43323,1,video
16,14,17,1,43,795.3649,522.5712,803,332,1,190.724,9.283156,1,video
17,14,18,1,5,1337.954,778.7805,1037,616,0,342.156,2.899936,1,video
18,14,19,1,28,1368.176,179.4219,1347,453,0,274.3965,8.133184,1,video
19,14,20,1,29,1314.381,268.2895,1291,786,0,518.2382,1.933288,1,video
20,14,21,1,36,553.8179,504.9114,618,270,0,243.5215,3.59993,1,video
21,14,22,1,44,1102.191,372.9619,871,411,0,234.2991,6.899877,1,video
22,14,23,1,25,1259.27,659.6687,956,519,0,334.3057,1.899916,1,video
23,14,24,1,39,849.4844,605.4849,479,506,0,383.6091,5.183202,1,video
24,14,25,1,14,758.8978,152.6964,826,395,0,251.4234,4.133196,2,video
25,14,26,1,22,1167.485,178.8664,511,555,0,756.6038,4.299922,2,video
26,14,27,1,16,1044.748,285.5551,1108,219,1,91.81707,3.916589,2,video
27,14,28,1,33,553.8179,504.9114,1292,241,0,783.9401,2.483197,2,video
28,14,29,1,6,1329.478,490.7432,1091,435,0,244.9059,3.949904,2,video
29,14,30,1,45,1291.859,798.045,1371,555,0,255.6055,2.416555,2,video
30,14,31,1,31,1034.346,612.0095,610,406,0,471.7091,3.199916,2,video
31,14,32,1,34,1102.191,372.9619,1326,758,0,445.3593,6.033225,2,video
32,14,33,1,18,994.7312,906.9215,973,524,0,383.5376,2.299925,2,video
33,14,34,1,48,1264.883,473.7692,1389,413,1,138.1955,3.666513,2,video
34,14,35,1,11,1337.954,778.7805,1262,787,1,76.39738,2.866534,2,video
35,14,36,1,13,1394.985,383.0158,1113,739,0,454.1368,6.766627,2,video
36,14,37,1,17,1368.176,179.4219,529,653,0,963.5833,5.683253,2,video
37,14,38,1,32,985.7252,483.8568,587,523,0,400.6419,6.733186,2,video
38,14,39,1,41,795.3649,522.5712,650,267,0,294.0197,2.566606,2,video
39,14,40,1,47,849.4844,605.4849,1371,200,0,660.6032,4.6999,2,video
40,14,41,1,21,1259.27,659.6687,498,531,0,772.0671,3.666568,2,video
41,14,42,1,1,1200.574,755.5924,1087,291,0,478.273,3.633282,2,video
42,14,43,1,12,755.4427,358.0251,1230,669,0,567.3711,3.949939,2,video
43,14,44,1,40,925.8889,349.5766,606,191,0,357.037,3.149939,2,video
44,14,45,1,46,670.2504,858.0984,945,777,0,286.4687,4.333211,2,video
45,14,46,1,26,1314.381,268.2895,460,333,0,856.8283,6.633308,2,video
46,14,47,1,15,1111.088,429.4949,982,750,0,345.5247,4.116514,2,video
47,14,48,1,20,994.1273,356.8898,1470,412,0,479.0532,5.233286,2,video
0,15,1,1,15,925.5564,162.3567,1403,246,0,484.715,3.725473,1,video
1,15,2,1,34,1215.115,409.2355,1435,931,0,566.2047,3.016567,1,video
2,15,3,1,13,1339.824,953.6029,1264,652,0,310.988,6.399761,1,video
3,15,4,1,40,1044.123,159.0218,739,569,0,511.0599,2.233259,1,video
4,15,5,1,31,1471.695,270.0328,1134,821,0,646.2219,2.54987,1,video
5,15,6,1,45,1465.103,132.6368,868,747,0,856.7227,4.966507,1,video
6,15,7,1,18,1268.563,660.4636,1388,157,0,517.4369,2.883283,1,video
7,15,8,1,48,827.4054,722.9087,605,881,0,272.8681,2.699901,1,video
8,15,9,1,6,1319.856,549.9797,1399,300,0,262.209,2.633247,1,video
9,15,10,1,46,1090.503,712.572,719,640,0,378.5254,5.116556,1,video
10,15,11,1,20,546.0842,429.8611,1144,176,0,649.5759,2.483256,1,video
11,15,12,1,32,1398.952,254.9399,1144,912,0,704.7895,2.799871,1,video
12,15,13,1,17,1400.305,737.6677,1177,365,0,434.4494,4.016598,1,video
13,15,14,1,22,957.5281,169.9484,848,574,0,418.6336,1.999854,1,video
14,15,15,1,47,685.6033,327.9043,632,709,0,384.8471,3.399896,1,video
15,15,16,1,26,1299.872,602.6307,706,365,0,639.6501,4.433212,1,video
16,15,17,1,41,980.1499,925.9067,1303,717,0,384.5442,4.233176,1,video
17,15,18,1,33,1175.006,773.1599,498,855,0,681.935,3.033255,1,video
18,15,19,1,1,619.405,743.7897,1352,914,0,752.1083,2.583188,1,video
19,15,20,1,16,1108.547,776.7239,968,162,0,630.5862,2.599896,1,video
20,15,21,1,14,1344.527,350.0295,1348,277,1,73.11208,5.199936,1,video
21,15,22,1,21,742.0589,379.9562,507,177,0,310.5542,2.366589,1,video
22,15,23,1,11,1320.223,645.7347,1254,700,1,85.61629,2.449883,1,video
23,15,24,1,12,1313.786,709.4543,1413,375,0,348.8597,2.399916,1,video
24,15,25,1,7,1344.527,350.0295,671,548,0,702.0189,3.799819,2,video
25,15,26,1,23,957.5281,169.9484,493,149,0,465.0002,3.333303,2,video
26,15,27,1,37,1090.503,712.572,653,304,0,598.6153,4.033179,2,video
27,15,28,1,35,685.6033,327.9043,747,389,1,86.61547,4.449945,2,video
28,15,29,1,44,1175.006,773.1599,960,540,0,317.1612,2.149904,2,video
29,15,30,1,5,1319.856,549.9797,1401,689,1,160.9686,2.71683,2,video
30,15,31,1,42,1215.115,409.2355,834,540,0,402.9238,4.533336,2,video
31,15,32,1,28,1268.563,660.4636,771,858,0,535.3403,4.866623,2,video
32,15,33,1,24,1299.872,602.6307,828,915,0,565.8955,2.783255,2,video
33,15,34,1,2,1108.547,776.7239,1224,700,1,138.6216,2.833268,2,video
34,15,35,1,9,1320.223,645.7347,1257,535,1,127.5119,6.449927,2,video
35,15,36,1,27,742.0589,379.9562,1157,901,0,666.0801,5.183298,2,video
36,15,37,1,39,1044.123,159.0218,786,801,0,691.9274,3.333339,2,video
37,15,38,1,29,1398.952,254.9399,746,389,0,666.5717,6.183239,2,video
38,15,39,1,25,546.0842,429.8611,1157,253,0,636.0016,3.299959,2,video
39,15,40,1,36,980.1499,925.9067,653,690,0,403.3349,3.233227,2,video
40,15,41,1,30,1471.695,270.0328,775,409,0,710.4194,5.033211,2,video
41,15,42,1,8,1313.786,709.4543,1296,647,1,64.93761,6.199948,2,video
42,15,43,1,43,1465.103,132.6368,783,899,0,1025.952,2.799896,2,video
43,15,44,1,18,1400.305,737.6677,1394,174,0,563.703,3.283245,2,video
44,15,45,1,38,827.4054,722.9087,646,689,1,184.5473,5.466613,2,video
45,15,46,1,4,619.405,743.7897,646,549,1,196.5968,2.949889,2,video
46,15,47,1,10,925.5564,162.3567,744,392,0,292.7436,2.966546,2,video
47,15,48,1,3,1339.824,953.6029,1110,144,0,841.5912,3.383242,2,video
0,16,1,1,9,1057.188,366.9492,554,219,0,524.4875,5.341396,1,video
1,16,2,1,7,697.6869,368.9399,434,411,0,267.0203,3.249906,1,video
2,16,3,1,28,1336.19,961.8056,1472,861,1,169.1331,2.216506,1,video
3,16,4,1,10,688.023,279.5538,1500,442,0,828.0673,2.099886,1,video
4,16,5,1,18,1067.055,922.0802,1071,851,1,71.18955,2.299944,1,video
5,16,6,1,24,488.9012,461.9697,691,420,0,206.4107,1.583215,1,video
6,16,7,1,27,799.5141,730.2305,952,414,0,351.0751,2.183236,1,video
7,16,8,1,35,1219.205,579.1269,1387,323,0,306.1962,2.283268,1,video
8,16,9,1,4,860.8742,172.6422,847,845,0,672.5009,1.849914,1,video
9,16,10,1,38,662.1334,838.4475,594,743,1,117.2705,2.399925,1,video
10,16,11,1,36,1273.672,870.998,1209,659,0,221.6429,1.649952,1,video
11,16,12,1,29,1426.182,147.8715,1353,876,0,731.7968,1.616468,1,video
12,16,13,1,23,607.9936,665.6338,1083,867,0,515.9258,1.999972,1,video
13,16,14,1,2,535.8049,861.5938,592,660,0,209.2796,2.433304,1,video
14,16,15,1,30,644.8723,850.0821,1093,299,0,710.2886,2.183246,1,video
15,16,16,1,39,448.9631,936.2643,1208,460,0,896.083,1.849918,1,video
16,16,17,1,3,1325.305,967.1528,601,840,0,735.3812,1.766672,1,video
17,16,18,1,42,1459.401,783.568,792,650,0,680.6355,1.366631,1,video
18,16,19,1,8,602.9219,705.3162,580,912,0,207.9509,2.283251,1,video
19,16,20,1,43,1426.723,211.4206,1102,648,0,544.1018,3.633178,1,video
20,16,21,1,5,1462.045,442.7524,599,690,0,897.7631,2.449939,1,video
21,16,22,1,44,458.1551,802.1469,1200,456,0,818.6278,1.533238,1,video
22,16,23,1,25,531.4091,372.4311,1045,401,0,514.3849,1.499944,1,video
23,16,24,1,37,906.3788,318.1512,1234,315,0,327.6363,1.39991,1,video
24,16,25,1,33,1426.723,211.4206,1134,437,0,369.5578,3.683186,2,video
25,16,26,1,20,607.9936,665.6338,1199,243,0,726.5727,3.36659,2,video
26,16,27,1,46,1459.401,783.568,608,260,0,999.5036,3.616601,2,video
27,16,28,1,17,799.5141,730.2305,1124,839,0,342.2308,2.683251,2,video
28,16,29,1,13,860.8742,172.6422,795,242,1,95.65519,1.783239,2,video
29,16,30,1,26,488.9012,461.9697,807,538,0,327.0588,2.099938,2,video
30,16,31,1,40,1219.205,579.1269,806,854,0,496.2799,2.24992,2,video
31,16,32,1,34,662.1334,838.4475,666,982,1,143.6046,2.083207,2,video
32,16,33,1,1,697.6869,368.9399,1427,958,0,937.491,2.88325,2,video
33,16,34,1,21,1067.055,922.0802,663,631,0,497.984,5.783222,2,video
34,16,35,1,41,448.9631,936.2643,1153,410,0,878.9893,2.933237,2,video
35,16,36,1,15,688.023,279.5538,798,227,1,121.8887,2.516572,2,video
36,16,37,1,6,1325.305,967.1528,818,666,0,589.9588,1.966617,2,video
37,16,38,1,18,1336.19,961.8056,1086,856,0,271.6433,5.783187,2,video
38,16,39,1,14,1462.045,442.7524,714,635,0,772.3541,1.833245,2,video
39,16,40,1,12,602.9219,705.3162,1479,436,0,916.5392,1.833272,2,video
40,16,41,1,16,535.8049,861.5938,824,214,0,708.8259,1.816593,2,video
41,16,42,1,32,1426.182,147.8715,1453,764,0,616.7118,5.88318,2,video
42,16,43,1,47,906.3788,318.1512,549,430,0,374.4726,2.183255,2,video
43,16,44,1,31,644.8723,850.0821,1105,684,0,489.1838,3.483254,2,video
44,16,45,1,11,1057.188,366.9492,637,685,0,526.986,1.766588,2,video
45,16,46,1,45,1273.672,870.998,1107,444,0,458.374,1.799909,2,video
46,16,47,1,22,531.4091,372.4311,890,587,0,417.8842,4.483265,2,video
47,16,48,1,48,458.1551,802.1469,1098,450,0,730.3484,1.716601,2,video
0,17,1,1,17,1266.476,686.1708,596,255,0,797.1491,4.166465,1,vr
1,17,2,1,48,1357.915,118.0976,1111,778,0,704.5837,1.583228,1,vr
2,17,3,1,16,1382.223,194.6786,1316,220,1,70.89905,2.133167,1,vr
3,17,4,1,46,1184.124,421.9576,1216,871,0,450.1724,1.78329,1,vr
4,17,5,1,6,765.3017,453.4151,1214,183,0,523.8841,2.133328,1,vr
5,17,6,1,14,1073.771,734.7599,675,448,0,491.1714,1.816606,1,vr
6,17,7,1,1,1189.753,199.5284,818,379,0,412.8083,1.949908,1,vr
7,17,8,1,31,946.7911,348.5864,791,815,0,491.7444,1.899913,1,vr
8,17,9,1,41,552.2184,929.5566,960,297,0,752.6046,2.83319,1,vr
9,17,10,1,34,1447.402,655.3853,1171,829,0,326.4051,3.733262,1,vr
10,17,11,1,20,1078.264,742.5799,695,236,0,635.228,3.116564,1,vr
11,17,12,1,15,1199.782,716.8502,509,937,0,725.0141,2.299936,1,vr
12,17,13,1,18,617.1938,144.0482,619,893,0,748.9539,1.799914,1,vr
13,17,14,1,11,857.4202,584.0202,675,818,0,296.6879,2.316607,1,vr
14,17,15,1,32,844.1466,470.5495,749,223,0,265.2049,1.866586,1,vr
15,17,16,1,47,780.8613,127.7233,1154,839,0,803.2104,1.833232,1,vr
16,17,17,1,33,705.2896,371.3405,1098,684,0,501.9735,2.066591,1,vr
17,17,18,1,40,1283.506,252.3065,1104,811,0,586.8227,1.716602,1,vr
18,17,19,1,12,547.4019,807.965,799,375,0,500.7597,1.599914,1,vr
19,17,20,1,21,568.4571,726.4429,692,172,0,568.0403,3.866563,1,vr
20,17,21,1,22,520.8489,836.9161,1265,148,0,1014.084,2.416598,1,vr
21,17,22,1,26,899.8902,433.6511,751,215,0,264.5309,1.533274,1,vr
22,17,23,1,45,535.2491,963.6713,1162,819,0,643.2313,1.716602,1,vr
23,17,24,1,13,783.3418,483.034,1276,748,0,559.3917,6.449926,1,vr
24,17,25,1,36,780.8613,127.7233,617,832,0,723.0879,8.416571,2,vr
25,17,26,1,10,857.4202,584.0202,638,834,0,332.6186,1.799873,2,vr
26,17,27,1,44,1283.506,252.3065,835,370,0,463.6913,1.799912,2,vr
27,17,28,1,3,1199.782,716.8502,1291,218,0,507.1216,3.699953,2,vr
28,17,29,1,27,1266.476,686.1708,722,239,0,704.5681,2.14991,2,vr
29,17,30,1,29,844.1466,470.5495,1361,496,0,517.4796,5.266566,2,vr
30,17,31,1,9,1189.753,199.5284,805,363,0,418.0409,4.116591,2,vr
31,17,32,1,30,899.8902,433.6511,633,887,0,526.0756,4.699834,2,vr
32,17,33,1,8,547.4019,807.965,699,804,1,151.65,1.666575,2,vr
33,17,34,1,24,568.4571,726.4429,1277,123,0,930.686,2.89991,2,vr
34,17,35,1,38,535.2491,963.6713,1132,758,0,631.1991,1.533276,2,vr
35,17,36,1,23,1078.264,742.5799,711,196,0,658.5079,1.683289,2,vr
36,17,37,1,42,1184.124,421.9576,1181,804,0,382.0552,1.81656,2,vr
37,17,38,1,25,946.7911,348.5864,1360,510,0,443.6169,6.366544,2,vr
38,17,39,1,39,1447.402,655.3853,1107,816,0,376.3919,1.699927,2,vr
39,17,40,1,37,552.2184,929.5566,703,220,0,725.4004,4.233253,2,vr
40,17,41,1,7,783.3418,483.034,690,831,0,360.268,4.749843,2,vr
41,17,42,1,35,705.2896,371.3405,708,243,1,128.3691,4.649885,2,vr
42,17,43,1,4,1382.223,194.6786,637,828,0,977.9844,2.533272,2,vr
43,17,44,1,28,617.1938,144.0482,654,194,1,62.04736,4.533244,2,vr
44,17,45,1,2,1073.771,734.7599,1361,497,0,372.8678,6.899827,2,vr
45,17,46,1,18,520.8489,836.9161,633,886,1,122.4218,2.266577,2,vr
46,17,47,1,43,1357.915,118.0976,724,239,0,645.3414,1.833297,2,vr
47,17,48,1,5,765.3017,453.4151,1237,173,0,548.7549,2.583257,2,vr
0,18,1,1,14,842.1597,602.894,957,387,0,244.5373,13.47447,1,video
1,18,2,1,40,700.0739,933.4925,1128,814,0,444.2963,3.483193,1,video
2,18,3,1,21,1469.777,661.4012,1084,420,0,455.0805,1.866471,1,video
3,18,4,1,18,763.4604,282.3163,1081,841,0,642.6188,3.899896,1,video
4,18,5,1,13,1020.47,685.8893,651,678,0,369.5542,3.533221,1,video
5,18,6,1,22,926.1016,274.6861,615,331,0,316.1573,3.183223,1,video
6,18,7,1,31,1404.661,699.756,582,822,0,831.6938,3.716577,1,video
7,18,8,1,1,1063.177,626.9563,1120,415,0,219.4409,14.51649,1,video
8,18,9,1,16,733.9528,478.5677,635,345,1,166.2287,5.633205,1,video
9,18,10,1,17,449.3457,284.5234,470,638,0,354.0795,3.199895,1,video
10,18,11,1,12,907.0206,158.0326,706,549,0,439.6189,1.883269,1,video
11,18,12,1,34,657.0605,569.0422,983,621,0,330.0548,3.333195,1,video
12,18,13,1,20,544.9826,831.3631,1097,424,0,686.0524,2.816583,1,video
13,18,14,1,15,516.6164,148.3115,1204,566,0,804.3381,6.266506,1,video
14,18,15,1,48,953.0407,853.4175,1257,361,0,578.6763,2.216488,1,video
15,18,16,1,6,1041.861,408.1828,857,696,0,342.0704,2.449949,1,video
16,18,17,1,33,738.6808,942.2177,1192,265,0,814.9369,2.316611,1,video
17,18,18,1,45,527.3278,806.0604,1240,354,0,843.9551,6.083245,1,video
18,18,19,1,26,622.3143,395.0108,673,858,0,465.7554,3.13325,1,video
19,18,20,1,41,1261.653,464.8997,972,251,0,360.0721,1.7499,1,video
20,18,21,1,32,558.7779,286.2114,932,845,0,671.9668,1.816519,1,video
21,18,22,1,47,554.8882,412.5986,1243,865,0,823.5076,2.716578,1,video
22,18,23,1,46,1325.512,696.5414,590,657,0,736.5742,1.649928,1,video
23,18,24,1,11,741.5377,631.0982,423,235,0,508.2913,1.749947,1,video
24,18,25,1,38,1261.653,464.8997,1196,761,0,303.2914,4.133274,2,video
25,18,26,1,8,1020.47,685.8893,1040,468,0,218.7628,3.266555,2,video
26,18,27,1,9,741.5377,631.0982,1186,474,0,471.4091,5.749788,2,video
27,18,28,1,24,926.1016,274.6861,575,288,0,351.354,1.94995,2,video
28,18,29,1,44,1325.512,696.5414,669,869,0,678.7858,3.133346,2,video
29,18,30,1,7,842.1597,602.894,511,239,0,492.0219,3.849895,2,video
30,18,31,1,36,657.0605,569.0422,573,831,0,275.1146,2.799924,2,video
31,18,32,1,35,738.6808,942.2177,980,660,0,371.3244,2.116614,2,video
32,18,33,1,4,907.0206,158.0326,624,284,0,309.7877,5.516531,2,video
33,18,34,1,27,558.7779,286.2114,1086,876,0,791.0839,2.099946,2,video
34,18,35,1,3,1063.177,626.9563,429,307,0,710.3188,3.216574,2,video
35,18,36,1,25,1469.777,661.4012,805,718,0,667.1818,2.766619,2,video
36,18,37,1,37,554.8882,412.5986,1344,340,0,792.4443,1.799968,2,video
37,18,38,1,42,527.3278,806.0604,970,801,0,442.7011,8.049893,2,video
38,18,39,1,29,622.3143,395.0108,816,740,0,395.6409,4.416567,2,video
39,18,40,1,5,516.6164,148.3115,547,470,0,323.1202,4.899928,2,video
40,18,41,1,18,1404.661,699.756,1324,764,1,103.1187,3.366582,2,video
41,18,42,1,2,733.9528,478.5677,619,463,1,116.0021,10.33319,2,video
42,18,43,1,30,449.3457,284.5234,1082,451,0,654.1911,6.566551,2,video
43,18,44,1,23,763.4604,282.3163,720,834,0,553.3929,9.299907,2,video
44,18,45,1,28,544.9826,831.3631,1241,863,0,696.736,1.599952,2,video
45,18,46,1,10,1041.861,408.1828,784,573,0,306.0339,5.266619,2,video
46,18,47,1,39,700.0739,933.4925,1212,917,0,512.1917,1.699908,2,video
47,18,48,1,43,953.0407,853.4175,1191,280,0,620.8319,2.516552,2,video
0,19,1,1,33,665.5307,698.3964,1205,738,0,540.921,4.299832,1,video
1,19,2,1,1,675.1086,530.3141,1048,811,0,466.7254,3.799933,1,video
2,19,3,1,6,867.008,930.63,1402,644,0,606.9376,4.033192,1,video
3,19,4,1,47,1163.535,421.9078,1044,949,0,540.4764,5.783229,1,video
4,19,5,1,17,1295.827,531.6298,1153,311,0,262.8253,5.31655,1,video
5,19,6,1,14,625.9925,559.0066,631,359,0,200.0693,2.533261,1,video
6,19,7,1,11,1398.185,647.4362,1121,551,0,293.4815,2.016605,1,video
7,19,8,1,26,1228.152,833.3729,1086,420,0,437.1319,4.099927,1,video
8,19,9,1,15,1441.534,255.0198,898,359,0,553.3903,4.566601,1,video
9,19,10,1,16,711.0988,505.8218,613,532,1,101.5317,4.349894,1,video
10,19,11,1,20,1068.841,820.5609,767,448,0,479.4891,2.266612,1,video
11,19,12,1,34,1133.491,448.5765,1267,818,0,392.8084,3.116592,1,video
12,19,13,1,13,1290.999,548.9962,482,353,0,832.4029,2.416657,1,video
13,19,14,1,18,1187.89,385.2145,1346,756,0,403.0891,4.666497,1,video
14,19,15,1,12,735.3214,368.4371,1410,658,0,734.192,4.53326,1,video
15,19,16,1,45,786.0884,569.4947,1239,87,0,661.7628,3.616549,1,video
16,19,17,1,41,1179.964,843.8925,1104,300,0,549.1717,5.516565,1,video
17,19,18,1,48,1215.759,305.1317,673,615,0,624.9849,4.899852,1,video
18,19,19,1,22,890.4405,367.5091,1264,783,0,558.7302,3.399827,1,video
19,19,20,1,46,1278.781,282.5927,1330,671,0,391.7699,2.883239,1,video
20,19,21,1,40,968.6682,205.9091,1258,151,0,294.496,4.549899,1,video
21,19,22,1,21,468.0503,413.9195,1164,424,0,696.0227,6.833213,1,video
22,19,23,1,32,790.5078,333.3576,961,926,0,616.6787,3.199915,1,video
23,19,24,1,31,1449.956,653.9203,982,141,0,694.3129,9.949854,1,video
24,19,25,1,25,468.0503,413.9195,1225,778,0,839.9568,4.983259,2,video
25,19,26,1,23,1228.152,833.3729,1138,777,1,106.3261,4.883233,2,video
26,19,27,1,4,1398.185,647.4362,854,809,0,567.6619,3.899912,2,video
27,19,28,1,37,1163.535,421.9078,1018,155,0,304.0068,3.016604,2,video
28,19,29,1,5,625.9925,559.0066,729,188,0,385.0408,8.249873,2,video
29,19,30,1,27,1068.841,820.5609,1282,163,0,691.2474,8.899822,2,video
30,19,31,1,3,1441.534,255.0198,1431,143,1,112.5139,6.566597,2,video
31,19,32,1,29,1295.827,531.6298,508,147,0,876.7052,6.299873,2,video
32,19,33,1,36,665.5307,698.3964,765,814,1,152.5068,4.86653,2,video
33,19,34,1,35,1133.491,448.5765,648,636,0,520.4124,3.883244,2,video
34,19,35,1,24,890.4405,367.5091,789,567,0,223.8007,4.01659,2,video
35,19,36,1,9,711.0988,505.8218,1363,536,0,652.5993,5.499923,2,video
36,19,37,1,43,786.0884,569.4947,1377,344,0,632.4748,5.383171,2,video
37,19,38,1,10,867.008,930.63,642,470,0,512.6486,4.683256,2,video
38,19,39,1,28,1187.89,385.2145,765,176,0,471.8117,4.949955,2,video
39,19,40,1,39,1215.759,305.1317,626,796,0,767.3121,7.349921,2,video
40,19,41,1,42,1278.781,282.5927,961,508,0,389.6064,2.799876,2,video
41,19,42,1,18,790.5078,333.3576,1183,404,0,398.7988,4.049911,2,video
42,19,43,1,30,1449.956,653.9203,1188,800,0,299.934,5.566496,2,video
43,19,44,1,7,1290.999,548.9962,1299,812,0,263.1254,3.383264,2,video
44,19,45,1,44,1179.964,843.8925,636,298,0,770.646,3.299934,2,video
45,19,46,1,2,675.1086,530.3141,674,536,1,5.792971,3.533249,2,video
46,19,47,1,38,968.6682,205.9091,1268,171,0,301.3605,3.933178,2,video
47,19,48,1,8,735.3214,368.4371,1254,541,0,546.631,5.649921,2,video
0,20,1,1,13,1067.677,259.8038,728,683,0,542.6559,5.099873,1,vr
1,20,2,1,1,943.8851,677.8946,714,668,0,230.0979,4.133303,1,vr
2,20,3,1,47,1018.779,308.7493,1353,638,0,469.1584,3.283231,1,vr
3,20,4,1,17,777.6222,718.5663,713,792,1,97.81892,2.299986,1,vr
4,20,5,1,20,670.3761,880.7819,1063,234,0,756.6243,5.766593,1,vr
5,20,6,1,22,514.5112,690.0095,708,952,0,325.6946,2.916553,1,vr
6,20,7,1,14,728.5757,109.8234,1200,889,0,910.6904,4.566555,1,vr
7,20,8,1,40,1448.42,139.8525,1077,457,0,488.4005,2.933224,1,vr
8,20,9,1,26,603.9038,277.1616,1498,348,0,896.8981,2.399965,1,vr
9,20,10,1,16,1381.991,934.4359,954,618,0,532.2669,2.466626,1,vr
10,20,11,1,11,1269.692,770.1944,709,453,0,644.1954,1.949915,1,vr
11,20,12,1,46,1470.404,446.2371,1231,460,0,239.7996,2.449931,1,vr
12,20,13,1,21,1406.132,448.9785,1336,862,0,418.9335,6.149866,1,vr
13,20,14,1,15,809.6815,520.1215,706,211,0,326.0459,2.583274,1,vr
14,20,15,1,31,1342.931,388.6118,1218,242,1,192.6207,1.933236,1,vr
15,20,16,1,6,994.5731,609.9907,1184,743,0,231.4606,6.433205,1,vr
16,20,17,1,45,533.7045,507.4477,693,656,0,217.8138,7.266574,1,vr
17,20,18,1,32,471.2133,528.115,632,242,0,328.1983,3.183178,1,vr
18,20,19,1,34,1443.58,577.1364,1185,997,0,493.1015,1.883226,1,vr
19,20,20,1,48,1427.15,298.3878,1077,237,0,355.4907,2.79991,1,vr
20,20,21,1,12,775.5429,331.5083,1451,905,0,886.0785,3.466556,1,vr
21,20,22,1,18,1330.239,853.3916,1509,320,0,562.5496,4.033157,1,vr
22,20,23,1,33,1289.562,920.5192,1323,769,1,155.1649,4.166589,1,vr
23,20,24,1,41,820.7299,446.1153,1206,548,0,398.5142,2.916519,1,vr
24,20,25,1,44,820.7299,446.1153,848,854,0,408.7953,2.783292,2,vr
25,20,26,1,38,1448.42,139.8525,699,767,0,977.2122,2.433226,2,vr
26,20,27,1,3,1269.692,770.1944,831,775,0,438.7182,12.91655,2,vr
27,20,28,1,9,1381.991,934.4359,1331,452,0,485.1232,3.966543,2,vr
28,20,29,1,43,1289.562,920.5192,715,763,0,595.7635,12.41647,2,vr
29,20,30,1,37,1018.779,308.7493,1107,214,1,129.4618,12.53311,2,vr
30,20,31,1,23,471.2133,528.115,1197,678,0,741.1018,6.583247,2,vr
31,20,32,1,4,809.6815,520.1215,757,628,1,120.0547,4.749874,2,vr
32,20,33,1,36,1427.15,298.3878,691,255,0,737.4278,10.24984,2,vr
33,20,34,1,10,994.5731,609.9907,678,408,0,375.5247,10.16653,2,vr
34,20,35,1,30,603.9038,277.1616,1236,309,0,632.8976,3.283245,2,vr
35,20,36,1,24,1342.931,388.6118,1500,211,0,237.1005,2.916581,2,vr
36,20,37,1,39,533.7045,507.4477,1203,466,0,670.5777,7.016548,2,vr
37,20,38,1,35,1443.58,577.1364,703,706,0,751.7079,3.933184,2,vr
38,20,39,1,7,943.8851,677.8946,1067,671,1,123.3078,2.533286,2,vr
39,20,40,1,29,777.6222,718.5663,1209,322,0,585.9621,2.733277,2,vr
40,20,41,1,25,670.3761,880.7819,584,288,0,599.0419,1.849958,2,vr
41,20,42,1,5,1067.677,259.8038,1321,669,0,481.2631,4.183236,2,vr
42,20,43,1,28,514.5112,690.0095,645,315,0,397.0635,3.749852,2,vr
43,20,44,1,42,1470.404,446.2371,1232,119,0,404.8712,5.949902,2,vr
44,20,45,1,27,1330.239,853.3916,938,328,0,655.6582,4.716565,2,vr
45,20,46,1,18,1406.132,448.9785,1517,352,1,147.2975,7.749902,2,vr
46,20,47,1,2,728.5757,109.8234,831,638,0,538.0161,2.433258,2,vr
47,20,48,1,8,775.5429,331.5083,428,689,0,498.5844,4.549889,2,vr
0,21,1,1,18,798.0119,271.3953,714,243,1,88.6809,8.566576,1,video
1,21,2,1,31,820.0739,848.3623,695,562,0,312.485,3.033199,1,video
2,21,3,1,40,894.8989,467.6065,956,358,1,125.4867,2.733273,1,video
3,21,4,1,22,739.7288,286.6134,703,667,0,382.1557,6.599918,1,video
4,21,5,1,45,672.4701,147.3972,916,546,0,467.1092,7.649884,1,video
5,21,6,1,16,673.5605,132.0872,737,335,0,212.5986,5.016593,1,video
6,21,7,1,48,843.9654,645.4588,1231,680,0,388.5729,5.0499,1,video
7,21,8,1,13,506.4242,647.3599,482,636,1,26.93679,3.083201,1,video
8,21,9,1,17,487.2558,307.6998,1220,345,0,733.6929,4.883231,1,video
9,21,10,1,21,618.4304,578.4926,836,567,0,217.8729,2.866598,1,video
10,21,11,1,47,1425.825,858.4601,980,125,0,858.3258,3.299929,1,video
11,21,12,1,32,1362.508,127.5496,970,672,0,671.1845,4.083186,1,video
12,21,13,1,20,846.6242,769.4664,1332,233,0,723.4541,2.483286,1,video
13,21,14,1,15,857.477,576.0529,824,889,0,314.7325,2.583243,1,video
14,21,15,1,12,779.2618,172.4695,823,668,0,497.457,3.633251,1,video
15,21,16,1,26,1022.038,768.9908,956,355,0,419.2248,1.766525,1,video
16,21,17,1,33,1202.472,229.6922,1075,643,0,432.5187,3.149912,1,video
17,21,18,1,1,1094.063,743.4594,719,334,0,555.2742,2.216612,1,video
18,21,19,1,14,473.7271,847.0061,1358,772,0,887.4483,3.833305,1,video
19,21,20,1,11,1372.925,970.4169,572,885,0,805.467,2.099956,1,video
20,21,21,1,41,1221,138.1242,1376,922,0,799.0533,5.216593,1,video
21,21,22,1,46,693.0786,257.0525,1383,531,0,742.3199,2.266589,1,video
22,21,23,1,34,1166.414,544.9712,1084,451,1,124.9905,2.433275,1,video
23,21,24,1,6,1386.469,536.7868,1374,860,0,323.4537,2.183236,1,video
24,21,25,1,28,618.4304,578.4926,1352,244,0,806.2317,5.599818,2,video
25,21,26,1,35,894.8989,467.6065,1282,343,0,406.6621,4.549849,2,video
26,21,27,1,42,843.9654,645.4588,913,565,1,106.016,4.516527,2,video
27,21,28,1,23,846.6242,769.4664,814,676,1,98.99648,7.149828,2,video
28,21,29,1,3,473.7271,847.0061,743,236,0,667.7098,4.283242,2,video
29,21,30,1,25,1362.508,127.5496,1343,242,1,116.1011,5.183225,2,video
30,21,31,1,18,739.7288,286.6134,1175,558,0,512.9441,7.799845,2,video
31,21,32,1,10,673.5605,132.0872,1351,224,0,683.6463,2.733278,2,video
32,21,33,1,9,857.477,576.0529,595,444,0,293.8234,3.66656,2,video
33,21,34,1,7,779.2618,172.4695,734,758,0,587.2773,1.999903,2,video
34,21,35,1,27,487.2558,307.6998,709,237,0,232.7422,5.633247,2,video
35,21,36,1,29,798.0119,271.3953,1341,241,0,543.8381,1.8499,2,video
36,21,37,1,4,506.4242,647.3599,732,754,0,249.5126,3.116543,2,video
37,21,38,1,8,1372.925,970.4169,1383,428,0,542.5104,2.23322,2,video
38,21,39,1,24,820.0739,848.3623,921,569,0,297.0343,3.783211,2,video
39,21,40,1,39,1425.825,858.4601,1172,539,0,408.0216,3.099903,2,video
40,21,41,1,5,1094.063,743.4594,1366,876,0,302.5171,1.833178,2,video
41,21,42,1,2,1386.469,536.7868,481,458,0,908.8904,4.966527,2,video
42,21,43,1,30,1022.038,768.9908,960,887,1,133.3226,3.666596,2,video
43,21,44,1,43,1202.472,229.6922,1008,514,0,344.4565,4.149879,2,video
44,21,45,1,37,672.4701,147.3972,1235,244,0,570.7643,2.93327,2,video
45,21,46,1,44,1166.414,544.9712,1172,537,1,9.733809,2.383245,2,video
46,21,47,1,38,1221,138.1242,685,142,0,536.0144,4.199879,2,video
47,21,48,1,36,693.0786,257.0525,965,775,0,584.9879,3.999868,2,video